date	time	subject	blockcode	trialcode	picture.target.currentitem	values.stiminterval	latency	response	correct	values.score	values.AverageRTpractice	values.SSDcoeffitient	values.SSD
092723	19:42:42	1	Practice	CRTTpractice	tank.jpg	4500	701	32	1	1	0	0	0
092723	19:42:42	1	Practice	CRTTpractice	deer.jpg	4500	589	37	1	2	0	0	0
092723	19:42:42	1	Practice	CRTTpractice	tank.jpg	4500	419	32	1	3	0	0	0
092723	19:42:42	1	Practice	CRTTpractice	deer.jpg	4000	339	37	1	4	0	0	0
092723	19:42:42	1	Practice	CRTTpractice	tank.jpg	6000	518	32	1	5	0	0	0
092723	19:42:42	1	Practice	CRTTpractice	deer.jpg	4500	414	37	1	6	0	0	0
092723	19:42:42	1	Practice	CRTTpractice	tank.jpg	6000	437	32	1	7	0	0	0
092723	19:42:42	1	Practice	CRTTpractice	deer.jpg	5000	476	37	1	8	0	0	0
092723	19:42:42	1	Practice	CRTTpractice	tank.jpg	6000	465	32	1	9	0	0	0
092723	19:42:42	1	Practice	CRTTpractice	deer.jpg	5500	322	37	1	10	0	0	0
092723	19:42:42	1	Practice	CRTTpractice	tank.jpg	4500	475	32	1	11	0	0	0
092723	19:42:42	1	Practice	CRTTpractice	deer.jpg	4000	450	37	1	12	0	0	0
092723	19:42:42	1	Practice	CRTTpractice	tank.jpg	5500	411	32	1	13	0	0	0
092723	19:42:42	1	Practice	CRTTpractice	deer.jpg	4500	329	37	1	14	0	0	0
092723	19:42:42	1	Practice	CRTTpractice	tank.jpg	5500	440	32	1	15	0	0	0
092723	19:42:42	1	Practice	CRTTpractice	deer.jpg	5000	431	37	1	16	0	0	0
092723	19:42:42	1	Practice	CRTTpractice	deer.jpg	5500	450	37	1	17	0	0	0
092723	19:42:42	1	Practice	CRTTpractice	tank.jpg	6000	472	32	1	18	0	0	0
092723	19:42:42	1	Practice	CRTTpractice	tank.jpg	4500	450	32	1	19	0	0	0
092723	19:42:42	1	Practice	CRTTpractice	deer.jpg	4000	425	37	1	20	0	0	0
092723	19:42:42	1	Practice	CRTTpractice	deer.jpg	5500	453	37	1	21	0	0	0
092723	19:42:42	1	Practice	CRTTpractice	tank.jpg	4000	532	32	1	22	0	0	0
092723	19:42:42	1	Practice	CRTTpractice	tank.jpg	5500	347	32	1	23	0	0	0
092723	19:42:42	1	Practice	CRTTpractice	deer.jpg	5000	462	37	1	24	0	0	0
092723	19:42:42	1	Practice	CRTTpractice	tank.jpg	5500	360	32	1	25	0	0	0
092723	19:42:42	1	Practice	CRTTpractice	deer.jpg	4000	412	37	1	26	0	0	0
092723	19:42:42	1	Practice	CRTTpractice	tank.jpg	6000	347	32	1	27	0	0	0
092723	19:42:42	1	Practice	CRTTpractice	deer.jpg	5000	438	37	1	28	0	0	0
092723	19:42:42	1	Practice	CRTTpractice	tank.jpg	4000	414	37	0	27	0	0	0
092723	19:42:42	1	Practice	CRTTpractice	deer.jpg	4500	467	37	1	28	0	0	0
092723	19:42:42	1	SST	CRTTstop	tank.jpg	5500	88	0	0	28	442	20	88,4000000000000056843
092723	19:42:42	1	SST	CRTTstop2	tank.jpg	5500	381	32	1	27	442	20	88,4000000000000056843
092723	19:42:42	1	SST	CRTT	deer.jpg	4000	535	37	1	28	442	20	88,4000000000000056843
092723	19:42:42	1	SST	CRTT	deer.jpg	4500	495	37	1	29	442	20	88,4000000000000056843
092723	19:42:42	1	SST	CRTTstop	tank.jpg	4500	309	0	0	29	442	70	309,4000000000000341061
092723	19:42:42	1	SST	CRTTstop2	tank.jpg	4500	187	32	1	28	442	70	309,4000000000000341061
092723	19:42:42	1	SST	CRTTstop	deer.jpg	6000	44	0	0	28	442	10	44,2000000000000028422
092723	19:42:42	1	SST	CRTTstop2	deer.jpg	6000	706	0	0	28	442	10	44,2000000000000028422
092723	19:42:42	1	SST	CRTT	tank.jpg	4344,1999999999998181011	522	32	1	29	442	10	44,2000000000000028422
092723	19:42:42	1	SST	CRTT	deer.jpg	5500	513	37	1	30	442	10	44,2000000000000028422
092723	19:42:42	1	SST	CRTT	tank.jpg	5000	437	32	1	31	442	10	44,2000000000000028422
092723	19:42:42	1	SST	CRTT	tank.jpg	4500	513	32	1	32	442	10	44,2000000000000028422
092723	19:42:42	1	SST	CRTTstop	deer.jpg	5000	354	0	0	32	442	80	353,6000000000000227374
092723	19:42:42	1	SST	CRTTstop2	deer.jpg	5000	142	37	1	31	442	80	353,6000000000000227374
092723	19:42:42	1	SST	CRTT	tank.jpg	6000	529	32	1	32	442	80	353,6000000000000227374
092723	19:42:42	1	SST	CRTT	deer.jpg	5500	528	37	1	33	442	80	353,6000000000000227374
092723	19:42:42	1	SST	CRTT	tank.jpg	4000	548	32	1	34	442	80	353,6000000000000227374
092723	19:42:42	1	SST	CRTT	deer.jpg	5500	371	37	1	35	442	80	353,6000000000000227374
092723	19:42:42	1	SST	CRTT	deer.jpg	5000	533	37	1	36	442	80	353,6000000000000227374
092723	19:42:42	1	SST	CRTTstop	tank.jpg	6000	354	0	0	36	442	80	353,6000000000000227374
092723	19:42:42	1	SST	CRTTstop2	tank.jpg	6000	167	32	1	35	442	80	353,6000000000000227374
092723	19:42:42	1	SST	CRTT	deer.jpg	4000	530	37	1	36	442	80	353,6000000000000227374
092723	19:42:42	1	SST	CRTTstop	tank.jpg	5000	88	0	0	36	442	20	88,4000000000000056843
092723	19:42:42	1	SST	CRTTstop2	tank.jpg	5000	662	0	0	36	442	20	88,4000000000000056843
092723	19:42:42	1	SST	CRTTstop	tank.jpg	5388,3999999999996362021	44	0	0	36	442	10	44,2000000000000028422
092723	19:42:42	1	SST	CRTTstop2	tank.jpg	5388,3999999999996362021	706	0	0	36	442	10	44,2000000000000028422
092723	19:42:42	1	SST	CRTT	deer.jpg	3844,1999999999998181011	484	37	1	37	442	10	44,2000000000000028422
092723	19:42:42	1	SST	CRTT	tank.jpg	5500	556	32	1	38	442	10	44,2000000000000028422
092723	19:42:42	1	SST	CRTT	deer.jpg	6000	510	37	1	39	442	10	44,2000000000000028422
092723	19:42:42	1	SST	CRTT	deer.jpg	4000	403	37	1	40	442	10	44,2000000000000028422
092723	19:42:42	1	SST	CRTTstop	tank.jpg	5500	309	0	0	40	442	70	309,4000000000000341061
092723	19:42:42	1	SST	CRTTstop2	tank.jpg	5500	194	32	1	39	442	70	309,4000000000000341061
092723	19:42:42	1	SST	CRTT	tank.jpg	5500	591	32	1	40	442	70	309,4000000000000341061
092723	19:42:42	1	SST	CRTT	deer.jpg	5500	540	37	1	41	442	70	309,4000000000000341061
092723	19:42:42	1	SST	CRTTstop	tank.jpg	5000	88	0	0	41	442	20	88,4000000000000056843
092723	19:42:42	1	SST	CRTTstop2	tank.jpg	5000	662	0	0	41	442	20	88,4000000000000056843
092723	19:42:42	1	SST	CRTTstop	deer.jpg	3388,4000000000000909495	309	0	0	41	442	70	309,4000000000000341061
092723	19:42:42	1	SST	CRTTstop2	deer.jpg	3388,4000000000000909495	151	37	1	40	442	70	309,4000000000000341061
092723	19:42:42	1	SST	CRTT	tank.jpg	6000	521	32	1	41	442	70	309,4000000000000341061
092723	19:42:42	1	SST	CRTTstop	deer.jpg	6000	44	0	0	41	442	10	44,2000000000000028422
092723	19:42:42	1	SST	CRTTstop2	deer.jpg	6000	706	0	0	41	442	10	44,2000000000000028422
092723	19:42:42	1	SST	CRTT	tank.jpg	3844,1999999999998181011	654	32	1	42	442	10	44,2000000000000028422
092723	19:42:42	1	SST	CRTT	deer.jpg	6000	547	37	1	43	442	10	44,2000000000000028422
092723	19:42:42	1	SST	CRTTstop	tank.jpg	4500	354	0	0	43	442	80	353,6000000000000227374
092723	19:42:42	1	SST	CRTTstop2	tank.jpg	4500	218	32	1	42	442	80	353,6000000000000227374
092723	19:42:42	1	SST	CRTT	deer.jpg	4000	636	37	1	43	442	80	353,6000000000000227374
092723	19:42:42	1	SST	CRTTstop	deer.jpg	4000	88	0	0	43	442	20	88,4000000000000056843
092723	19:42:42	1	SST	CRTTstop2	deer.jpg	4000	662	0	0	43	442	20	88,4000000000000056843
092723	19:42:42	1	SST	CRTT	tank.jpg	5388,3999999999996362021	527	32	1	44	442	20	88,4000000000000056843
092723	19:42:42	1	SST	CRTT	deer.jpg	4500	575	37	1	45	442	20	88,4000000000000056843
092723	19:42:42	1	SST	CRTTstop	tank.jpg	6000	44	0	0	45	442	10	44,2000000000000028422
092723	19:42:42	1	SST	CRTTstop2	tank.jpg	6000	706	0	0	45	442	10	44,2000000000000028422
092723	19:42:42	1	SST	CRTT	deer.jpg	4844,1999999999998181011	617	37	1	46	442	10	44,2000000000000028422
092723	19:42:42	1	SST	CRTT	tank.jpg	4000	553	32	1	47	442	10	44,2000000000000028422
092723	19:42:42	1	SST	CRTTstop	tank.jpg	5000	354	0	0	47	442	80	353,6000000000000227374
092723	19:42:42	1	SST	CRTTstop2	tank.jpg	5000	117	32	1	46	442	80	353,6000000000000227374
092723	19:42:42	1	SST	CRTT	deer.jpg	6000	520	37	1	47	442	80	353,6000000000000227374
092723	19:42:42	1	SST	CRTT	deer.jpg	4500	592	37	1	48	442	80	353,6000000000000227374
092723	19:42:42	1	SST	CRTT	tank.jpg	6000	552	32	1	49	442	80	353,6000000000000227374
092723	19:42:42	1	SST	CRTT	tank.jpg	4000	564	32	1	50	442	80	353,6000000000000227374
092723	19:42:42	1	SST	CRTT	deer.jpg	5000	590	37	1	51	442	80	353,6000000000000227374
092723	19:42:42	1	SST	CRTTstop	tank.jpg	4000	309	0	0	51	442	70	309,4000000000000341061
092723	19:42:42	1	SST	CRTTstop2	tank.jpg	4000	441	0	0	51	442	70	309,4000000000000341061
092723	19:42:42	1	SST	CRTTstop	deer.jpg	5109,3999999999996362021	309	0	0	51	442	70	309,4000000000000341061
092723	19:42:42	1	SST	CRTTstop2	deer.jpg	5109,3999999999996362021	441	0	0	51	442	70	309,4000000000000341061
092723	19:42:42	1	SST	CRTTstop	deer.jpg	5109,3999999999996362021	44	0	0	51	442	10	44,2000000000000028422
092723	19:42:42	1	SST	CRTTstop2	deer.jpg	5109,3999999999996362021	706	0	0	51	442	10	44,2000000000000028422
092723	19:42:42	1	SST	CRTT	tank.jpg	3844,1999999999998181011	536	32	1	52	442	10	44,2000000000000028422
092723	19:42:42	1	SST	CRTTstop	tank.jpg	6000	354	0	0	52	442	80	353,6000000000000227374
092723	19:42:42	1	SST	CRTTstop2	tank.jpg	6000	396	0	0	52	442	80	353,6000000000000227374
092723	19:42:42	1	SST	CRTT	deer.jpg	4153,6000000000003637979	750	0	0	51	442	80	353,6000000000000227374
092723	19:42:42	1	SST	CRTT	tank.jpg	5500	750	0	0	50	442	80	353,6000000000000227374
092723	19:42:42	1	SST	CRTT	deer.jpg	4000	750	0	0	49	442	80	353,6000000000000227374
092723	19:42:42	1	SST	CRTT	deer.jpg	5500	606	37	1	50	442	80	353,6000000000000227374
092723	19:42:42	1	SST	CRTT	tank.jpg	6000	509	32	1	51	442	80	353,6000000000000227374
092723	19:42:42	1	SST	CRTTstop	deer.jpg	4500	88	0	0	51	442	20	88,4000000000000056843
092723	19:42:42	1	SST	CRTTstop2	deer.jpg	4500	402	37	1	50	442	20	88,4000000000000056843
092723	19:42:42	1	SST	CRTTstop	tank.jpg	4000	44	0	0	50	442	10	44,2000000000000028422
092723	19:42:42	1	SST	CRTTstop2	tank.jpg	4000	706	0	0	50	442	10	44,2000000000000028422
092723	19:42:42	1	SST	CRTT	deer.jpg	3844,1999999999998181011	454	37	1	51	442	10	44,2000000000000028422
092723	19:42:42	1	SST	CRTT	tank.jpg	4000	614	32	1	52	442	10	44,2000000000000028422
092723	19:42:42	1	SST	CRTT	tank.jpg	4500	490	32	1	53	442	10	44,2000000000000028422
092723	19:42:42	1	SST	CRTT	deer.jpg	5000	519	37	1	54	442	10	44,2000000000000028422
092723	19:42:42	1	SST	CRTT	tank.jpg	5000	450	32	1	55	442	10	44,2000000000000028422
092723	19:42:42	1	SST	CRTTstop	deer.jpg	4500	88	0	0	55	442	20	88,4000000000000056843
092723	19:42:42	1	SST	CRTTstop2	deer.jpg	4500	662	0	0	55	442	20	88,4000000000000056843
092723	19:42:42	1	SST	CRTTstop	deer.jpg	5388,3999999999996362021	309	0	0	55	442	70	309,4000000000000341061
092723	19:42:42	1	SST	CRTTstop2	deer.jpg	5388,3999999999996362021	187	37	1	54	442	70	309,4000000000000341061
092723	19:42:42	1	SST	CRTT	tank.jpg	4000	654	32	1	55	442	70	309,4000000000000341061
092723	19:42:42	1	SST	CRTT	deer.jpg	4000	750	0	0	54	442	70	309,4000000000000341061
092723	19:42:42	1	SST	CRTTstop	tank.jpg	4500	354	0	0	54	442	80	353,6000000000000227374
092723	19:42:42	1	SST	CRTTstop2	tank.jpg	4500	85	32	1	53	442	80	353,6000000000000227374
092723	19:42:42	1	SST	CRTTstop	deer.jpg	4500	354	0	0	53	442	80	353,6000000000000227374
092723	19:42:42	1	SST	CRTTstop2	deer.jpg	4500	112	37	1	52	442	80	353,6000000000000227374
092723	19:42:42	1	SST	CRTTstop	tank.jpg	5500	44	0	0	52	442	10	44,2000000000000028422
092723	19:42:42	1	SST	CRTTstop2	tank.jpg	5500	706	0	0	52	442	10	44,2000000000000028422
092723	19:42:42	1	SST	CRTT	tank.jpg	4344,1999999999998181011	518	32	1	53	442	10	44,2000000000000028422
092723	19:42:42	1	SST	CRTTstop	deer.jpg	4000	309	0	0	53	442	70	309,4000000000000341061
092723	19:42:42	1	SST	CRTTstop2	deer.jpg	4000	174	37	1	52	442	70	309,4000000000000341061
092723	19:42:42	1	SST	CRTT	tank.jpg	6000	495	32	1	53	442	70	309,4000000000000341061
092723	19:42:42	1	SST	CRTTstop	deer.jpg	4500	88	0	0	53	442	20	88,4000000000000056843
092723	19:42:42	1	SST	CRTTstop2	deer.jpg	4500	662	0	0	53	442	20	88,4000000000000056843
092723	19:42:42	1	SST	CRTT	tank.jpg	4888,3999999999996362021	750	0	0	52	442	20	88,4000000000000056843
092723	19:42:42	1	SST	CRTT	deer.jpg	6000	474	37	1	53	442	20	88,4000000000000056843
092723	19:42:42	1	SST	CRTT	tank.jpg	5500	603	32	1	54	442	20	88,4000000000000056843
092723	19:42:42	1	SST	CRTT	deer.jpg	6000	474	37	1	55	442	20	88,4000000000000056843
092723	19:42:42	1	SST	CRTT	deer.jpg	4500	509	37	1	56	442	20	88,4000000000000056843
092723	19:42:42	1	SST	CRTT	tank.jpg	4500	550	32	1	57	442	20	88,4000000000000056843
092723	19:42:42	1	SST	CRTT	tank.jpg	6000	519	32	1	58	442	20	88,4000000000000056843
092723	19:42:42	1	SST	CRTTstop	deer.jpg	4000	354	0	0	58	442	80	353,6000000000000227374
092723	19:42:42	1	SST	CRTTstop2	deer.jpg	4000	124	32	1	57	442	80	353,6000000000000227374
092723	19:42:42	1	SST	CRTT	deer.jpg	4500	501	37	1	58	442	80	353,6000000000000227374
092723	19:42:42	1	SST	CRTT	tank.jpg	5500	541	32	1	59	442	80	353,6000000000000227374
092723	19:42:42	1	SST	CRTT	deer.jpg	4000	529	37	1	60	442	80	353,6000000000000227374
092723	19:42:42	1	SST	CRTTstop	tank.jpg	6000	88	0	0	60	442	20	88,4000000000000056843
092723	19:42:42	1	SST	CRTTstop2	tank.jpg	6000	662	0	0	60	442	20	88,4000000000000056843
092723	19:42:42	1	SST	CRTTstop	tank.jpg	5388,3999999999996362021	309	0	0	60	442	70	309,4000000000000341061
092723	19:42:42	1	SST	CRTTstop2	tank.jpg	5388,3999999999996362021	274	32	1	59	442	70	309,4000000000000341061
092723	19:42:42	1	SST	CRTT	deer.jpg	5000	512	37	1	60	442	70	309,4000000000000341061
092723	19:42:42	1	SST	CRTT	deer.jpg	5000	533	37	1	61	442	70	309,4000000000000341061
092723	19:42:42	1	SST	CRTT	tank.jpg	6000	679	32	1	62	442	70	309,4000000000000341061
092723	19:42:42	1	SST	CRTTstop	deer.jpg	5500	44	0	0	62	442	10	44,2000000000000028422
092723	19:42:42	1	SST	CRTTstop2	deer.jpg	5500	706	0	0	62	442	10	44,2000000000000028422
092723	19:42:42	1	SST	CRTTstop	tank.jpg	3344,1999999999998181011	309	0	0	62	442	70	309,4000000000000341061
092723	19:42:42	1	SST	CRTTstop2	tank.jpg	3344,1999999999998181011	258	32	1	61	442	70	309,4000000000000341061
092723	19:42:42	1	SST	CRTT	deer.jpg	4500	533	37	1	62	442	70	309,4000000000000341061
092723	19:42:42	1	SST	CRTTstop	tank.jpg	4500	44	0	0	62	442	10	44,2000000000000028422
092723	19:42:42	1	SST	CRTTstop2	tank.jpg	4500	706	0	0	62	442	10	44,2000000000000028422
092723	19:42:42	1	SST	CRTT	tank.jpg	4844,1999999999998181011	493	32	1	63	442	10	44,2000000000000028422
092723	19:42:42	1	SST	CRTT	deer.jpg	4500	599	37	1	64	442	10	44,2000000000000028422
