date	time	subject	blockcode	trialcode	picture.target.currentitem	values.stiminterval	latency	response	correct	values.score	values.AverageRTpractice	values.SSDcoeffitient	values.SSD
060523	12:57:46	1	Practice	CRTTpractice	deer.jpg	4000	750	0	0	-1	0	0	0
060523	12:57:46	1	Practice	CRTTpractice	tank.jpg	4500	544	32	1	0	0	0	0
060523	12:57:46	1	Practice	CRTTpractice	deer.jpg	4000	572	37	1	1	0	0	0
060523	12:57:46	1	Practice	CRTTpractice	tank.jpg	5000	622	32	1	2	0	0	0
060523	12:57:46	1	Practice	CRTTpractice	tank.jpg	5500	649	32	1	3	0	0	0
060523	12:57:46	1	Practice	CRTTpractice	deer.jpg	5500	546	37	1	4	0	0	0
060523	12:57:46	1	Practice	CRTTpractice	deer.jpg	4000	750	0	0	3	0	0	0
060523	12:57:46	1	Practice	CRTTpractice	tank.jpg	4500	549	32	1	4	0	0	0
060523	12:57:46	1	Practice	CRTTpractice	deer.jpg	5000	511	37	1	5	0	0	0
060523	12:57:46	1	Practice	CRTTpractice	tank.jpg	4000	685	32	1	6	0	0	0
060523	12:57:46	1	Practice	CRTTpractice	deer.jpg	4000	539	37	1	7	0	0	0
060523	12:57:46	1	Practice	CRTTpractice	tank.jpg	4500	578	32	1	8	0	0	0
060523	12:57:46	1	Practice	CRTTpractice	tank.jpg	4500	729	32	1	9	0	0	0
060523	12:57:46	1	Practice	CRTTpractice	deer.jpg	6000	698	37	1	10	0	0	0
060523	12:57:46	1	Practice	CRTTpractice	tank.jpg	4500	579	32	1	11	0	0	0
060523	12:57:46	1	Practice	CRTTpractice	deer.jpg	4500	545	37	1	12	0	0	0
060523	12:57:46	1	Practice	CRTTpractice	deer.jpg	5000	596	37	1	13	0	0	0
060523	12:57:46	1	Practice	CRTTpractice	tank.jpg	5000	501	32	1	14	0	0	0
060523	12:57:46	1	Practice	CRTTpractice	deer.jpg	5000	594	37	1	15	0	0	0
060523	12:57:46	1	Practice	CRTTpractice	tank.jpg	4000	460	32	1	16	0	0	0
060523	12:57:46	1	Practice	CRTTpractice	tank.jpg	4500	639	32	1	17	0	0	0
060523	12:57:46	1	Practice	CRTTpractice	deer.jpg	6000	605	37	1	18	0	0	0
060523	12:57:46	1	Practice	CRTTpractice	tank.jpg	4000	646	32	1	19	0	0	0
060523	12:57:46	1	Practice	CRTTpractice	deer.jpg	5000	477	37	1	20	0	0	0
060523	12:57:46	1	Practice	CRTTpractice	tank.jpg	5500	663	32	1	21	0	0	0
060523	12:57:46	1	Practice	CRTTpractice	deer.jpg	4500	497	37	1	22	0	0	0
060523	12:57:46	1	Practice	CRTTpractice	deer.jpg	5000	703	37	1	23	0	0	0
060523	12:57:46	1	Practice	CRTTpractice	tank.jpg	5500	702	32	1	24	0	0	0
060523	12:57:46	1	Practice	CRTTpractice	deer.jpg	5500	630	37	1	25	0	0	0
060523	12:57:46	1	Practice	CRTTpractice	tank.jpg	5500	601	32	1	26	0	0	0
060523	12:57:46	1	SST	CRTTstop	deer.jpg	6000	484	0	0	26	605	80	484
060523	12:57:46	1	SST	CRTTstop2	deer.jpg	6000	225	37	1	25	605	80	484
060523	12:57:46	1	SST	CRTT	tank.jpg	4500	750	0	0	24	605	80	484
060523	12:57:46	1	SST	CRTT	tank.jpg	4500	684	32	1	25	605	80	484
060523	12:57:46	1	SST	CRTT	deer.jpg	6000	664	37	1	26	605	80	484
060523	12:57:46	1	SST	CRTTstop	deer.jpg	6000	121	0	0	26	605	20	121
060523	12:57:46	1	SST	CRTTstop2	deer.jpg	6000	629	0	0	26	605	20	121
060523	12:57:46	1	SST	CRTT	tank.jpg	4421	745	32	1	27	605	20	121
060523	12:57:46	1	SST	CRTTstop	deer.jpg	6000	61	0	0	27	605	10	60,5
060523	12:57:46	1	SST	CRTTstop2	deer.jpg	6000	690	0	0	27	605	10	60,5
060523	12:57:46	1	SST	CRTTstop	tank.jpg	4860,5	424	0	0	27	605	70	423,5
060523	12:57:46	1	SST	CRTTstop2	tank.jpg	4860,5	241	32	1	26	605	70	423,5
060523	12:57:46	1	SST	CRTTstop	tank.jpg	6000	424	0	0	26	605	70	423,5
060523	12:57:46	1	SST	CRTTstop2	tank.jpg	6000	327	0	0	26	605	70	423,5
060523	12:57:46	1	SST	CRTT	deer.jpg	4223,5	750	0	0	25	605	70	423,5
060523	12:57:46	1	SST	CRTT	deer.jpg	4000	750	0	0	24	605	70	423,5
060523	12:57:46	1	SST	CRTT	tank.jpg	5500	715	32	1	25	605	70	423,5
060523	12:57:46	1	SST	CRTT	tank.jpg	4000	728	32	1	26	605	70	423,5
060523	12:57:46	1	SST	CRTTstop	deer.jpg	4000	484	0	0	26	605	80	484
060523	12:57:46	1	SST	CRTTstop2	deer.jpg	4000	48	37	1	25	605	80	484
060523	12:57:46	1	SST	CRTTstop	deer.jpg	5000	121	0	0	25	605	20	121
060523	12:57:46	1	SST	CRTTstop2	deer.jpg	5000	629	0	0	25	605	20	121
060523	12:57:46	1	SST	CRTT	tank.jpg	3421	750	0	0	24	605	20	121
060523	12:57:46	1	SST	CRTT	tank.jpg	6000	747	32	1	25	605	20	121
060523	12:57:46	1	SST	CRTT	deer.jpg	4000	719	37	1	26	605	20	121
060523	12:57:46	1	SST	CRTT	tank.jpg	4500	639	32	1	27	605	20	121
060523	12:57:46	1	SST	CRTT	deer.jpg	4500	722	37	1	28	605	20	121
060523	12:57:46	1	SST	CRTT	tank.jpg	4000	679	32	1	29	605	20	121
060523	12:57:46	1	SST	CRTT	deer.jpg	4500	601	37	1	30	605	20	121
060523	12:57:46	1	SST	CRTT	deer.jpg	6000	664	37	1	31	605	20	121
060523	12:57:46	1	SST	CRTTstop	tank.jpg	5000	61	0	0	31	605	10	60,5
060523	12:57:46	1	SST	CRTTstop2	tank.jpg	5000	690	0	0	31	605	10	60,5
060523	12:57:46	1	SST	CRTT	tank.jpg	3360,5	750	0	0	30	605	10	60,5
060523	12:57:46	1	SST	CRTTstop	deer.jpg	5500	484	0	0	30	605	80	484
060523	12:57:46	1	SST	CRTTstop2	deer.jpg	5500	266	0	0	30	605	80	484
060523	12:57:46	1	SST	CRTT	deer.jpg	4284	715	37	1	31	605	80	484
060523	12:57:46	1	SST	CRTT	tank.jpg	4500	635	32	1	32	605	80	484
060523	12:57:46	1	SST	CRTTstop	deer.jpg	4500	424	0	0	32	605	70	423,5
060523	12:57:46	1	SST	CRTTstop2	deer.jpg	4500	196	37	1	31	605	70	423,5
060523	12:57:46	1	SST	CRTT	tank.jpg	4500	750	0	0	30	605	70	423,5
060523	12:57:46	1	SST	CRTTstop	tank.jpg	4500	61	0	0	30	605	10	60,5
060523	12:57:46	1	SST	CRTTstop2	tank.jpg	4500	690	0	0	30	605	10	60,5
060523	12:57:46	1	SST	CRTT	deer.jpg	4360,5	750	0	0	29	605	10	60,5
060523	12:57:46	1	SST	CRTT	tank.jpg	4000	593	32	1	30	605	10	60,5
060523	12:57:46	1	SST	CRTTstop	deer.jpg	5000	121	0	0	30	605	20	121
060523	12:57:46	1	SST	CRTTstop2	deer.jpg	5000	629	0	0	30	605	20	121
060523	12:57:46	1	SST	CRTT	tank.jpg	4421	605	32	1	31	605	20	121
060523	12:57:46	1	SST	CRTT	deer.jpg	4500	750	0	0	30	605	20	121
060523	12:57:46	1	SST	CRTT	tank.jpg	4500	609	32	1	31	605	20	121
060523	12:57:46	1	SST	CRTTstop	deer.jpg	5500	121	0	0	31	605	20	121
060523	12:57:46	1	SST	CRTTstop2	deer.jpg	5500	629	0	0	31	605	20	121
060523	12:57:46	1	SST	CRTT	deer.jpg	3921	652	37	1	32	605	20	121
060523	12:57:46	1	SST	CRTTstop	tank.jpg	5500	424	0	0	32	605	70	423,5
060523	12:57:46	1	SST	CRTTstop2	tank.jpg	5500	292	32	1	31	605	70	423,5
060523	12:57:46	1	SST	CRTT	tank.jpg	4000	746	32	1	32	605	70	423,5
060523	12:57:46	1	SST	CRTTstop	deer.jpg	5000	484	0	0	32	605	80	484
060523	12:57:46	1	SST	CRTTstop2	deer.jpg	5000	216	37	1	31	605	80	484
060523	12:57:46	1	SST	CRTT	tank.jpg	4500	750	0	0	30	605	80	484
060523	12:57:46	1	SST	CRTT	deer.jpg	4500	750	0	0	29	605	80	484
060523	12:57:46	1	SST	CRTTstop	deer.jpg	4500	61	0	0	29	605	10	60,5
060523	12:57:46	1	SST	CRTTstop2	deer.jpg	4500	690	0	0	29	605	10	60,5
060523	12:57:46	1	SST	CRTTstop	tank.jpg	3860,5	121	0	0	29	605	20	121
060523	12:57:46	1	SST	CRTTstop2	tank.jpg	3860,5	629	0	0	29	605	20	121
060523	12:57:46	1	SST	CRTTstop	tank.jpg	5421	484	0	0	29	605	80	484
060523	12:57:46	1	SST	CRTTstop2	tank.jpg	5421	161	32	1	28	605	80	484
060523	12:57:46	1	SST	CRTTstop	deer.jpg	5000	61	0	0	28	605	10	60,5
060523	12:57:46	1	SST	CRTTstop2	deer.jpg	5000	690	0	0	28	605	10	60,5
060523	12:57:46	1	SST	CRTTstop	tank.jpg	4860,5	424	0	0	28	605	70	423,5
060523	12:57:46	1	SST	CRTTstop2	tank.jpg	4860,5	327	0	0	28	605	70	423,5
060523	12:57:46	1	SST	CRTT	deer.jpg	4723,5	739	37	1	29	605	70	423,5
060523	12:57:46	1	SST	CRTT	deer.jpg	4000	750	0	0	28	605	70	423,5
060523	12:57:46	1	SST	CRTT	tank.jpg	5000	657	32	1	29	605	70	423,5
060523	12:57:46	1	SST	CRTT	tank.jpg	5000	750	0	0	28	605	70	423,5
060523	12:57:46	1	SST	CRTT	deer.jpg	4500	750	0	0	27	605	70	423,5
060523	12:57:46	1	SST	CRTTstop	deer.jpg	6000	61	0	0	27	605	10	60,5
060523	12:57:46	1	SST	CRTTstop2	deer.jpg	6000	690	0	0	27	605	10	60,5
060523	12:57:46	1	SST	CRTT	tank.jpg	4860,5	750	0	0	26	605	10	60,5
060523	12:57:46	1	SST	CRTT	deer.jpg	6000	750	0	0	25	605	10	60,5
060523	12:57:46	1	SST	CRTT	tank.jpg	5000	750	0	0	24	605	10	60,5
060523	12:57:46	1	SST	CRTT	deer.jpg	4500	750	0	0	23	605	10	60,5
060523	12:57:46	1	SST	CRTT	tank.jpg	6000	650	32	1	24	605	10	60,5
060523	12:57:46	1	SST	CRTTstop	deer.jpg	4500	121	0	0	24	605	20	121
060523	12:57:46	1	SST	CRTTstop2	deer.jpg	4500	296	37	1	23	605	20	121
060523	12:57:46	1	SST	CRTTstop	tank.jpg	6000	484	0	0	23	605	80	484
060523	12:57:46	1	SST	CRTTstop2	tank.jpg	6000	168	32	1	22	605	80	484
060523	12:57:46	1	SST	CRTT	deer.jpg	5000	722	37	1	23	605	80	484
060523	12:57:46	1	SST	CRTTstop	tank.jpg	5500	424	0	0	23	605	70	423,5
060523	12:57:46	1	SST	CRTTstop2	tank.jpg	5500	63	32	1	22	605	70	423,5
060523	12:57:46	1	SST	CRTT	tank.jpg	4000	750	0	0	21	605	70	423,5
060523	12:57:46	1	SST	CRTT	deer.jpg	4000	682	37	1	22	605	70	423,5
060523	12:57:46	1	SST	CRTT	tank.jpg	5000	622	32	1	23	605	70	423,5
060523	12:57:46	1	SST	CRTT	deer.jpg	6000	525	37	1	24	605	70	423,5
060523	12:57:46	1	SST	CRTT	deer.jpg	5500	653	37	1	25	605	70	423,5
060523	12:57:46	1	SST	CRTTstop	tank.jpg	5000	424	0	0	25	605	70	423,5
060523	12:57:46	1	SST	CRTTstop2	tank.jpg	5000	313	32	1	24	605	70	423,5
060523	12:57:46	1	SST	CRTT	deer.jpg	4000	718	37	1	25	605	70	423,5
060523	12:57:46	1	SST	CRTTstop	tank.jpg	5500	484	0	0	25	605	80	484
060523	12:57:46	1	SST	CRTTstop2	tank.jpg	5500	266	0	0	25	605	80	484
060523	12:57:46	1	SST	CRTT	deer.jpg	5784	736	37	1	26	605	80	484
060523	12:57:46	1	SST	CRTTstop	tank.jpg	6000	121	0	0	26	605	20	121
060523	12:57:46	1	SST	CRTTstop2	tank.jpg	6000	629	0	0	26	605	20	121
060523	12:57:46	1	SST	CRTT	deer.jpg	5421	716	37	1	27	605	20	121
060523	12:57:46	1	SST	CRTT	tank.jpg	4500	750	0	0	26	605	20	121
060523	12:57:46	1	SST	CRTT	deer.jpg	4500	750	0	0	25	605	20	121
060523	12:57:46	1	SST	CRTT	tank.jpg	6000	723	32	1	26	605	20	121
060523	12:57:46	1	SST	CRTT	deer.jpg	4500	750	0	0	25	605	20	121
060523	12:57:46	1	SST	CRTTstop	tank.jpg	5500	61	0	0	25	605	10	60,5
060523	12:57:46	1	SST	CRTTstop2	tank.jpg	5500	690	0	0	25	605	10	60,5
060523	12:57:46	1	SST	CRTTstop	tank.jpg	3360,5	61	0	0	25	605	10	60,5
060523	12:57:46	1	SST	CRTTstop2	tank.jpg	3360,5	690	0	0	25	605	10	60,5
060523	12:57:46	1	SST	CRTTstop	deer.jpg	4360,5	484	0	0	25	605	80	484
060523	12:57:46	1	SST	CRTTstop2	deer.jpg	4360,5	128	37	1	24	605	80	484
060523	12:57:46	1	SST	CRTT	deer.jpg	5500	711	37	1	25	605	80	484
060523	12:57:46	1	SST	CRTT	tank.jpg	5500	719	32	1	26	605	80	484
060523	12:57:46	1	SST	CRTT	tank.jpg	5000	675	32	1	27	605	80	484
060523	12:57:46	1	SST	CRTT	deer.jpg	5500	620	37	1	28	605	80	484
060523	12:57:46	1	SST	CRTTstop	deer.jpg	4000	121	0	0	28	605	20	121
060523	12:57:46	1	SST	CRTTstop2	deer.jpg	4000	629	0	0	28	605	20	121
060523	12:57:46	1	SST	CRTT	tank.jpg	3921	660	32	1	29	605	20	121
060523	12:57:46	1	SST	CRTTstop	tank.jpg	4500	424	0	0	29	605	70	423,5
060523	12:57:46	1	SST	CRTTstop2	tank.jpg	4500	188	32	1	28	605	70	423,5
060523	12:57:46	1	SST	CRTTstop	deer.jpg	4000	121	0	0	28	605	20	121
060523	12:57:46	1	SST	CRTTstop2	deer.jpg	4000	629	0	0	28	605	20	121
060523	12:57:46	1	SST	CRTT	deer.jpg	5421	750	0	0	27	605	20	121
060523	12:57:46	1	SST	CRTT	tank.jpg	4500	648	32	1	28	605	20	121
060523	12:57:46	1	SST	CRTT	deer.jpg	6000	629	37	1	29	605	20	121
060523	12:57:46	1	SST	CRTT	tank.jpg	5000	525	32	1	30	605	20	121
060523	12:57:46	1	SST	CRTT	tank.jpg	5000	657	32	1	31	605	20	121
060523	12:57:46	1	SST	CRTT	deer.jpg	4500	684	37	1	32	605	20	121
060523	12:57:46	1	SST	CRTTstop	deer.jpg	5000	424	0	0	32	605	70	423,5
060523	12:57:46	1	SST	CRTTstop2	deer.jpg	5000	222	37	1	31	605	70	423,5
060523	12:57:46	1	SST	CRTT	tank.jpg	5500	571	32	1	32	605	70	423,5
