date	time	subject	blockcode	trialcode	picture.target.currentitem	values.stiminterval	latency	response	correct	values.score	values.AverageRTpractice	values.SSDcoeffitient	values.SSD
060323	17:35:25	1	Practice	CRTTpractice	deer.jpg	5000	750	0	0	-1	0	0	0
060323	17:35:25	1	Practice	CRTTpractice	tank.jpg	5500	442	32	1	0	0	0	0
060323	17:35:25	1	Practice	CRTTpractice	tank.jpg	4000	362	32	1	1	0	0	0
060323	17:35:25	1	Practice	CRTTpractice	deer.jpg	4500	377	37	1	2	0	0	0
060323	17:35:25	1	Practice	CRTTpractice	deer.jpg	4000	628	37	1	3	0	0	0
060323	17:35:25	1	Practice	CRTTpractice	tank.jpg	5000	444	32	1	4	0	0	0
060323	17:35:25	1	Practice	CRTTpractice	deer.jpg	4000	572	37	1	5	0	0	0
060323	17:35:25	1	Practice	CRTTpractice	tank.jpg	6000	541	32	1	6	0	0	0
060323	17:35:25	1	Practice	CRTTpractice	deer.jpg	5000	352	37	1	7	0	0	0
060323	17:35:25	1	Practice	CRTTpractice	tank.jpg	4500	375	32	1	8	0	0	0
060323	17:35:25	1	Practice	CRTTpractice	deer.jpg	4000	634	37	1	9	0	0	0
060323	17:35:25	1	Practice	CRTTpractice	tank.jpg	4000	498	32	1	10	0	0	0
060323	17:35:25	1	Practice	CRTTpractice	deer.jpg	5500	394	37	1	11	0	0	0
060323	17:35:25	1	Practice	CRTTpractice	tank.jpg	5000	395	32	1	12	0	0	0
060323	17:35:25	1	Practice	CRTTpractice	deer.jpg	5000	396	37	1	13	0	0	0
060323	17:35:25	1	Practice	CRTTpractice	tank.jpg	5000	398	32	1	14	0	0	0
060323	17:35:25	1	Practice	CRTTpractice	tank.jpg	5000	590	32	1	15	0	0	0
060323	17:35:25	1	Practice	CRTTpractice	deer.jpg	4000	320	37	1	16	0	0	0
060323	17:35:25	1	Practice	CRTTpractice	deer.jpg	4000	341	32	0	15	0	0	0
060323	17:35:25	1	Practice	CRTTpractice	tank.jpg	5000	665	32	1	16	0	0	0
060323	17:35:25	1	Practice	CRTTpractice	deer.jpg	4000	583	37	1	17	0	0	0
060323	17:35:25	1	Practice	CRTTpractice	tank.jpg	5000	512	32	1	18	0	0	0
060323	17:35:25	1	Practice	CRTTpractice	tank.jpg	5000	581	32	1	19	0	0	0
060323	17:35:25	1	Practice	CRTTpractice	deer.jpg	6000	525	37	1	20	0	0	0
060323	17:35:25	1	Practice	CRTTpractice	deer.jpg	5500	572	37	1	21	0	0	0
060323	17:35:25	1	Practice	CRTTpractice	tank.jpg	6000	629	32	1	22	0	0	0
060323	17:35:25	1	Practice	CRTTpractice	deer.jpg	4000	550	37	1	23	0	0	0
060323	17:35:25	1	Practice	CRTTpractice	tank.jpg	4500	516	32	1	24	0	0	0
060323	17:35:25	1	Practice	CRTTpractice	tank.jpg	5000	608	32	1	25	0	0	0
060323	17:35:25	1	Practice	CRTTpractice	deer.jpg	5000	552	37	1	26	0	0	0
060323	17:35:25	1	SST	CRTT	deer.jpg	4000	625	37	1	27	503	0	0
060323	17:35:25	1	SST	CRTTstop	tank.jpg	4000	402	0	0	27	503	80	402,4000000000000341061
060323	17:35:25	1	SST	CRTTstop2	tank.jpg	4000	104	32	1	26	503	80	402,4000000000000341061
060323	17:35:25	1	SST	CRTT	tank.jpg	5000	613	32	1	27	503	80	402,4000000000000341061
060323	17:35:25	1	SST	CRTTstop	deer.jpg	4500	101	0	0	27	503	20	100,6000000000000085265
060323	17:35:25	1	SST	CRTTstop2	deer.jpg	4500	649	0	0	27	503	20	100,6000000000000085265
060323	17:35:25	1	SST	CRTT	deer.jpg	3400,5999999999999090505	503	32	0	26	503	20	100,6000000000000085265
060323	17:35:25	1	SST	CRTT	tank.jpg	5500	615	32	1	27	503	20	100,6000000000000085265
060323	17:35:25	1	SST	CRTT	tank.jpg	5500	706	32	1	28	503	20	100,6000000000000085265
060323	17:35:25	1	SST	CRTT	deer.jpg	4000	750	0	0	27	503	20	100,6000000000000085265
060323	17:35:25	1	SST	CRTTstop	tank.jpg	4500	352	0	0	27	503	70	352,1000000000000227374
060323	17:35:25	1	SST	CRTTstop2	tank.jpg	4500	279	32	1	26	503	70	352,1000000000000227374
060323	17:35:25	1	SST	CRTTstop	deer.jpg	4500	50	0	0	26	503	10	50,3000000000000042633
060323	17:35:25	1	SST	CRTTstop2	deer.jpg	4500	700	0	0	26	503	10	50,3000000000000042633
060323	17:35:25	1	SST	CRTTstop	deer.jpg	3350,3000000000001818989	402	0	0	26	503	80	402,4000000000000341061
060323	17:35:25	1	SST	CRTTstop2	deer.jpg	3350,3000000000001818989	207	37	1	25	503	80	402,4000000000000341061
060323	17:35:25	1	SST	CRTT	tank.jpg	4000	617	32	1	26	503	80	402,4000000000000341061
060323	17:35:25	1	SST	CRTT	tank.jpg	4500	677	32	1	27	503	80	402,4000000000000341061
060323	17:35:25	1	SST	CRTT	deer.jpg	4000	691	37	1	28	503	80	402,4000000000000341061
060323	17:35:25	1	SST	CRTT	deer.jpg	5000	680	37	1	29	503	80	402,4000000000000341061
060323	17:35:25	1	SST	CRTT	tank.jpg	4500	714	32	1	30	503	80	402,4000000000000341061
060323	17:35:25	1	SST	CRTTstop	deer.jpg	5500	352	0	0	30	503	70	352,1000000000000227374
060323	17:35:25	1	SST	CRTTstop2	deer.jpg	5500	398	0	0	30	503	70	352,1000000000000227374
060323	17:35:25	1	SST	CRTT	tank.jpg	5152,1000000000003637979	726	32	1	31	503	70	352,1000000000000227374
060323	17:35:25	1	SST	CRTT	deer.jpg	5500	685	37	1	32	503	70	352,1000000000000227374
060323	17:35:25	1	SST	CRTTstop	tank.jpg	5000	50	0	0	32	503	10	50,3000000000000042633
060323	17:35:25	1	SST	CRTTstop2	tank.jpg	5000	700	0	0	32	503	10	50,3000000000000042633
060323	17:35:25	1	SST	CRTTstop	deer.jpg	4850,3000000000001818989	101	0	0	32	503	20	100,6000000000000085265
060323	17:35:25	1	SST	CRTTstop2	deer.jpg	4850,3000000000001818989	649	0	0	32	503	20	100,6000000000000085265
060323	17:35:25	1	SST	CRTT	tank.jpg	3400,5999999999999090505	719	32	1	33	503	20	100,6000000000000085265
060323	17:35:25	1	SST	CRTT	tank.jpg	5000	750	0	0	32	503	20	100,6000000000000085265
060323	17:35:25	1	SST	CRTT	deer.jpg	4500	750	0	0	31	503	20	100,6000000000000085265
060323	17:35:25	1	SST	CRTT	deer.jpg	5500	750	0	0	30	503	20	100,6000000000000085265
060323	17:35:25	1	SST	CRTTstop	tank.jpg	5000	101	0	0	30	503	20	100,6000000000000085265
060323	17:35:25	1	SST	CRTTstop2	tank.jpg	5000	649	0	0	30	503	20	100,6000000000000085265
060323	17:35:25	1	SST	CRTTstop	deer.jpg	4400,6000000000003637979	402	0	0	30	503	80	402,4000000000000341061
060323	17:35:25	1	SST	CRTTstop2	deer.jpg	4400,6000000000003637979	348	0	0	30	503	80	402,4000000000000341061
060323	17:35:25	1	SST	CRTT	tank.jpg	3702,4000000000000909495	749	32	1	31	503	80	402,4000000000000341061
060323	17:35:25	1	SST	CRTT	deer.jpg	6000	750	0	0	30	503	80	402,4000000000000341061
060323	17:35:25	1	SST	CRTT	tank.jpg	4500	622	32	1	31	503	80	402,4000000000000341061
060323	17:35:25	1	SST	CRTTstop	tank.jpg	4000	352	0	0	31	503	70	352,1000000000000227374
060323	17:35:25	1	SST	CRTTstop2	tank.jpg	4000	215	32	1	30	503	70	352,1000000000000227374
060323	17:35:25	1	SST	CRTTstop	deer.jpg	6000	50	0	0	30	503	10	50,3000000000000042633
060323	17:35:25	1	SST	CRTTstop2	deer.jpg	6000	700	0	0	30	503	10	50,3000000000000042633
060323	17:35:25	1	SST	CRTT	deer.jpg	3350,3000000000001818989	750	0	0	29	503	10	50,3000000000000042633
060323	17:35:25	1	SST	CRTT	tank.jpg	5000	551	32	1	30	503	10	50,3000000000000042633
060323	17:35:25	1	SST	CRTT	deer.jpg	5000	497	37	1	31	503	10	50,3000000000000042633
060323	17:35:25	1	SST	CRTTstop	tank.jpg	6000	352	0	0	31	503	70	352,1000000000000227374
060323	17:35:25	1	SST	CRTTstop2	tank.jpg	6000	190	32	1	30	503	70	352,1000000000000227374
060323	17:35:25	1	SST	CRTT	deer.jpg	4000	665	37	1	31	503	70	352,1000000000000227374
060323	17:35:25	1	SST	CRTT	tank.jpg	4000	583	32	1	32	503	70	352,1000000000000227374
060323	17:35:25	1	SST	CRTT	deer.jpg	5500	364	37	1	33	503	70	352,1000000000000227374
060323	17:35:25	1	SST	CRTTstop	tank.jpg	4000	101	0	0	33	503	20	100,6000000000000085265
060323	17:35:25	1	SST	CRTTstop2	tank.jpg	4000	649	0	0	33	503	20	100,6000000000000085265
060323	17:35:25	1	SST	CRTT	tank.jpg	4900,6000000000003637979	686	32	1	34	503	20	100,6000000000000085265
060323	17:35:25	1	SST	CRTT	deer.jpg	4000	750	0	0	33	503	20	100,6000000000000085265
060323	17:35:25	1	SST	CRTT	deer.jpg	6000	533	37	1	34	503	20	100,6000000000000085265
060323	17:35:25	1	SST	CRTT	tank.jpg	6000	463	37	0	33	503	20	100,6000000000000085265
060323	17:35:25	1	SST	CRTTstop	tank.jpg	6000	50	0	0	33	503	10	50,3000000000000042633
060323	17:35:25	1	SST	CRTTstop2	tank.jpg	6000	700	0	0	33	503	10	50,3000000000000042633
060323	17:35:25	1	SST	CRTT	deer.jpg	4850,3000000000001818989	525	37	1	34	503	10	50,3000000000000042633
060323	17:35:25	1	SST	CRTT	tank.jpg	5500	612	32	1	35	503	10	50,3000000000000042633
060323	17:35:25	1	SST	CRTT	deer.jpg	4000	533	37	1	36	503	10	50,3000000000000042633
060323	17:35:25	1	SST	CRTT	deer.jpg	4500	557	37	1	37	503	10	50,3000000000000042633
060323	17:35:25	1	SST	CRTTstop	tank.jpg	4500	402	0	0	37	503	80	402,4000000000000341061
060323	17:35:25	1	SST	CRTTstop2	tank.jpg	4500	75	32	1	36	503	80	402,4000000000000341061
060323	17:35:25	1	SST	CRTT	deer.jpg	4000	586	37	1	37	503	80	402,4000000000000341061
060323	17:35:25	1	SST	CRTTstop	tank.jpg	5000	50	0	0	37	503	10	50,3000000000000042633
060323	17:35:25	1	SST	CRTTstop2	tank.jpg	5000	700	0	0	37	503	10	50,3000000000000042633
060323	17:35:25	1	SST	CRTTstop	tank.jpg	5350,3000000000001818989	101	0	0	37	503	20	100,6000000000000085265
060323	17:35:25	1	SST	CRTTstop2	tank.jpg	5350,3000000000001818989	649	0	0	37	503	20	100,6000000000000085265
060323	17:35:25	1	SST	CRTT	deer.jpg	4400,6000000000003637979	563	37	1	38	503	20	100,6000000000000085265
060323	17:35:25	1	SST	CRTTstop	deer.jpg	4000	352	0	0	38	503	70	352,1000000000000227374
060323	17:35:25	1	SST	CRTTstop2	deer.jpg	4000	223	37	1	37	503	70	352,1000000000000227374
060323	17:35:25	1	SST	CRTT	tank.jpg	4500	750	0	0	36	503	70	352,1000000000000227374
060323	17:35:25	1	SST	CRTT	deer.jpg	4000	574	37	1	37	503	70	352,1000000000000227374
060323	17:35:25	1	SST	CRTTstop	tank.jpg	4000	402	0	0	37	503	80	402,4000000000000341061
060323	17:35:25	1	SST	CRTTstop2	tank.jpg	4000	88	32	1	36	503	80	402,4000000000000341061
060323	17:35:25	1	SST	CRTTstop	deer.jpg	5000	101	0	0	36	503	20	100,6000000000000085265
060323	17:35:25	1	SST	CRTTstop2	deer.jpg	5000	649	0	0	36	503	20	100,6000000000000085265
060323	17:35:25	1	SST	CRTT	tank.jpg	4400,6000000000003637979	577	32	1	37	503	20	100,6000000000000085265
060323	17:35:25	1	SST	CRTT	deer.jpg	6000	610	37	1	38	503	20	100,6000000000000085265
060323	17:35:25	1	SST	CRTTstop	tank.jpg	5000	402	0	0	38	503	80	402,4000000000000341061
060323	17:35:25	1	SST	CRTTstop2	tank.jpg	5000	209	32	1	37	503	80	402,4000000000000341061
060323	17:35:25	1	SST	CRTT	tank.jpg	4000	627	32	1	38	503	80	402,4000000000000341061
060323	17:35:25	1	SST	CRTTstop	deer.jpg	4500	352	0	0	38	503	70	352,1000000000000227374
060323	17:35:25	1	SST	CRTTstop2	deer.jpg	4500	160	37	1	37	503	70	352,1000000000000227374
060323	17:35:25	1	SST	CRTT	deer.jpg	6000	610	37	1	38	503	70	352,1000000000000227374
060323	17:35:25	1	SST	CRTTstop	tank.jpg	5500	50	0	0	38	503	10	50,3000000000000042633
060323	17:35:25	1	SST	CRTTstop2	tank.jpg	5500	700	0	0	38	503	10	50,3000000000000042633
060323	17:35:25	1	SST	CRTTstop	deer.jpg	5350,3000000000001818989	50	0	0	38	503	10	50,3000000000000042633
060323	17:35:25	1	SST	CRTTstop2	deer.jpg	5350,3000000000001818989	700	0	0	38	503	10	50,3000000000000042633
060323	17:35:25	1	SST	CRTTstop	tank.jpg	5350,3000000000001818989	352	0	0	38	503	70	352,1000000000000227374
060323	17:35:25	1	SST	CRTTstop2	tank.jpg	5350,3000000000001818989	248	32	1	37	503	70	352,1000000000000227374
060323	17:35:25	1	SST	CRTTstop	tank.jpg	6000	101	0	0	37	503	20	100,6000000000000085265
060323	17:35:25	1	SST	CRTTstop2	tank.jpg	6000	649	0	0	37	503	20	100,6000000000000085265
060323	17:35:25	1	SST	CRTT	deer.jpg	3900,5999999999999090505	622	37	1	38	503	20	100,6000000000000085265
060323	17:35:25	1	SST	CRTT	deer.jpg	5000	646	37	1	39	503	20	100,6000000000000085265
060323	17:35:25	1	SST	CRTT	tank.jpg	6000	644	32	1	40	503	20	100,6000000000000085265
060323	17:35:25	1	SST	CRTTstop	tank.jpg	5500	402	0	0	40	503	80	402,4000000000000341061
060323	17:35:25	1	SST	CRTTstop2	tank.jpg	5500	229	32	1	39	503	80	402,4000000000000341061
060323	17:35:25	1	SST	CRTT	deer.jpg	4500	602	37	1	40	503	80	402,4000000000000341061
060323	17:35:25	1	SST	CRTT	deer.jpg	4500	639	37	1	41	503	80	402,4000000000000341061
060323	17:35:25	1	SST	CRTT	tank.jpg	5500	577	32	1	42	503	80	402,4000000000000341061
060323	17:35:25	1	SST	CRTT	deer.jpg	5500	614	37	1	43	503	80	402,4000000000000341061
060323	17:35:25	1	SST	CRTT	tank.jpg	4000	750	0	0	42	503	80	402,4000000000000341061
060323	17:35:25	1	SST	CRTT	tank.jpg	5000	649	32	1	43	503	80	402,4000000000000341061
060323	17:35:25	1	SST	CRTT	deer.jpg	6000	535	37	1	44	503	80	402,4000000000000341061
060323	17:35:25	1	SST	CRTTstop	deer.jpg	5500	101	0	0	44	503	20	100,6000000000000085265
060323	17:35:25	1	SST	CRTTstop2	deer.jpg	5500	649	0	0	44	503	20	100,6000000000000085265
060323	17:35:25	1	SST	CRTTstop	tank.jpg	4900,6000000000003637979	402	0	0	44	503	80	402,4000000000000341061
060323	17:35:25	1	SST	CRTTstop2	tank.jpg	4900,6000000000003637979	91	32	1	43	503	80	402,4000000000000341061
060323	17:35:25	1	SST	CRTT	tank.jpg	6000	656	32	1	44	503	80	402,4000000000000341061
060323	17:35:25	1	SST	CRTT	deer.jpg	5000	638	37	1	45	503	80	402,4000000000000341061
060323	17:35:25	1	SST	CRTTstop	tank.jpg	5000	352	0	0	45	503	70	352,1000000000000227374
060323	17:35:25	1	SST	CRTTstop2	tank.jpg	5000	398	0	0	45	503	70	352,1000000000000227374
060323	17:35:25	1	SST	CRTT	deer.jpg	4152,1000000000003637979	651	37	1	46	503	70	352,1000000000000227374
060323	17:35:25	1	SST	CRTT	deer.jpg	4000	722	37	1	47	503	70	352,1000000000000227374
060323	17:35:25	1	SST	CRTT	tank.jpg	5000	710	32	1	48	503	70	352,1000000000000227374
060323	17:35:25	1	SST	CRTTstop	tank.jpg	4000	50	0	0	48	503	10	50,3000000000000042633
060323	17:35:25	1	SST	CRTTstop2	tank.jpg	4000	700	0	0	48	503	10	50,3000000000000042633
060323	17:35:25	1	SST	CRTTstop	deer.jpg	4850,3000000000001818989	101	0	0	48	503	20	100,6000000000000085265
060323	17:35:25	1	SST	CRTTstop2	deer.jpg	4850,3000000000001818989	649	0	0	48	503	20	100,6000000000000085265
060323	17:35:25	1	SST	CRTT	deer.jpg	5400,6000000000003637979	590	37	1	49	503	20	100,6000000000000085265
060323	17:35:25	1	SST	CRTT	tank.jpg	4000	672	32	1	50	503	20	100,6000000000000085265
060323	17:35:25	1	SST	CRTTstop	deer.jpg	5500	402	0	0	50	503	80	402,4000000000000341061
060323	17:35:25	1	SST	CRTTstop2	deer.jpg	5500	200	37	1	49	503	80	402,4000000000000341061
060323	17:35:25	1	SST	CRTT	tank.jpg	4000	698	32	1	50	503	80	402,4000000000000341061
060323	17:35:25	1	SST	CRTT	deer.jpg	5000	678	37	1	51	503	80	402,4000000000000341061
060323	17:35:25	1	SST	CRTT	tank.jpg	5000	676	32	1	52	503	80	402,4000000000000341061
