date	time	subject	blockcode	trialcode	picture.target.currentitem	values.stiminterval	latency	response	correct	values.score	values.AverageRTpractice	values.SSDcoeffitient	values.SSD
092923	16:46:30	1	Practice	CRTTpractice	tank.jpg	4000	750	0	0	-1	0	0	0
092923	16:46:30	1	Practice	CRTTpractice	deer.jpg	6000	750	0	0	-2	0	0	0
092923	16:46:30	1	Practice	CRTTpractice	deer.jpg	6000	626	37	1	-1	0	0	0
092923	16:46:30	1	Practice	CRTTpractice	tank.jpg	6000	624	32	1	0	0	0	0
092923	16:46:30	1	Practice	CRTTpractice	deer.jpg	4000	457	37	1	1	0	0	0
092923	16:46:30	1	Practice	CRTTpractice	tank.jpg	4000	465	32	1	2	0	0	0
092923	16:46:30	1	Practice	CRTTpractice	deer.jpg	5500	418	37	1	3	0	0	0
092923	16:46:30	1	Practice	CRTTpractice	tank.jpg	4500	382	32	1	4	0	0	0
092923	16:46:30	1	Practice	CRTTpractice	deer.jpg	6000	326	37	1	5	0	0	0
092923	16:46:30	1	Practice	CRTTpractice	tank.jpg	5000	490	32	1	6	0	0	0
092923	16:46:30	1	Practice	CRTTpractice	tank.jpg	6000	366	37	0	5	0	0	0
092923	16:46:30	1	Practice	CRTTpractice	deer.jpg	6000	599	37	1	6	0	0	0
092923	16:46:30	1	Practice	CRTTpractice	tank.jpg	5500	443	32	1	7	0	0	0
092923	16:46:30	1	Practice	CRTTpractice	deer.jpg	4500	559	37	1	8	0	0	0
092923	16:46:30	1	Practice	CRTTpractice	tank.jpg	6000	416	32	1	9	0	0	0
092923	16:46:30	1	Practice	CRTTpractice	deer.jpg	5000	536	37	1	10	0	0	0
092923	16:46:30	1	Practice	CRTTpractice	deer.jpg	4500	424	37	1	11	0	0	0
092923	16:46:30	1	Practice	CRTTpractice	tank.jpg	5000	568	32	1	12	0	0	0
092923	16:46:30	1	Practice	CRTTpractice	tank.jpg	4500	549	32	1	13	0	0	0
092923	16:46:30	1	Practice	CRTTpractice	deer.jpg	5500	580	37	1	14	0	0	0
092923	16:46:30	1	Practice	CRTTpractice	deer.jpg	5000	517	37	1	15	0	0	0
092923	16:46:30	1	Practice	CRTTpractice	tank.jpg	5500	485	32	1	16	0	0	0
092923	16:46:30	1	Practice	CRTTpractice	deer.jpg	5000	394	37	1	17	0	0	0
092923	16:46:30	1	Practice	CRTTpractice	tank.jpg	6000	522	32	1	18	0	0	0
092923	16:46:30	1	Practice	CRTTpractice	tank.jpg	4000	527	32	1	19	0	0	0
092923	16:46:30	1	Practice	CRTTpractice	deer.jpg	6000	530	37	1	20	0	0	0
092923	16:46:30	1	Practice	CRTTpractice	tank.jpg	6000	548	32	1	21	0	0	0
092923	16:46:30	1	Practice	CRTTpractice	deer.jpg	4000	584	37	1	22	0	0	0
092923	16:46:30	1	Practice	CRTTpractice	deer.jpg	4500	541	37	1	23	0	0	0
092923	16:46:30	1	Practice	CRTTpractice	tank.jpg	6000	447	32	1	24	0	0	0
092923	16:46:30	1	SST	CRTT	tank.jpg	6000	491	32	1	25	514	0	0
092923	16:46:30	1	SST	CRTTstop	deer.jpg	5000	411	0	0	25	514	80	411,1999999999999886313
092923	16:46:30	1	SST	CRTTstop2	deer.jpg	5000	167	37	1	24	514	80	411,1999999999999886313
092923	16:46:30	1	SST	CRTTstop	deer.jpg	6000	103	0	0	24	514	20	102,7999999999999971578
092923	16:46:30	1	SST	CRTTstop2	deer.jpg	6000	647	0	0	24	514	20	102,7999999999999971578
092923	16:46:30	1	SST	CRTT	tank.jpg	5402,8000000000001818989	475	32	1	25	514	20	102,7999999999999971578
092923	16:46:30	1	SST	CRTTstop	tank.jpg	4000	51	0	0	25	514	10	51,3999999999999985789
092923	16:46:30	1	SST	CRTTstop2	tank.jpg	4000	699	0	0	25	514	10	51,3999999999999985789
092923	16:46:30	1	SST	CRTT	deer.jpg	4851,3999999999996362021	498	37	1	26	514	10	51,3999999999999985789
092923	16:46:30	1	SST	CRTT	tank.jpg	6000	542	32	1	27	514	10	51,3999999999999985789
092923	16:46:30	1	SST	CRTT	deer.jpg	4000	586	37	1	28	514	10	51,3999999999999985789
092923	16:46:30	1	SST	CRTT	deer.jpg	5000	547	37	1	29	514	10	51,3999999999999985789
092923	16:46:30	1	SST	CRTT	tank.jpg	5000	686	32	1	30	514	10	51,3999999999999985789
092923	16:46:30	1	SST	CRTT	deer.jpg	4500	567	37	1	31	514	10	51,3999999999999985789
092923	16:46:30	1	SST	CRTT	tank.jpg	5500	468	32	1	32	514	10	51,3999999999999985789
092923	16:46:30	1	SST	CRTT	deer.jpg	6000	426	37	1	33	514	10	51,3999999999999985789
092923	16:46:30	1	SST	CRTT	tank.jpg	5000	561	32	1	34	514	10	51,3999999999999985789
092923	16:46:30	1	SST	CRTT	deer.jpg	4500	536	37	1	35	514	10	51,3999999999999985789
092923	16:46:30	1	SST	CRTTstop	tank.jpg	4000	360	0	0	35	514	70	359,8000000000000113687
092923	16:46:30	1	SST	CRTTstop2	tank.jpg	4000	205	32	1	34	514	70	359,8000000000000113687
092923	16:46:30	1	SST	CRTTstop	tank.jpg	5000	411	0	0	34	514	80	411,1999999999999886313
092923	16:46:30	1	SST	CRTTstop2	tank.jpg	5000	141	32	1	33	514	80	411,1999999999999886313
092923	16:46:30	1	SST	CRTTstop	deer.jpg	5500	360	0	0	33	514	70	359,8000000000000113687
092923	16:46:30	1	SST	CRTTstop2	deer.jpg	5500	181	37	1	32	514	70	359,8000000000000113687
092923	16:46:30	1	SST	CRTT	deer.jpg	4000	750	0	0	31	514	70	359,8000000000000113687
092923	16:46:30	1	SST	CRTTstop	tank.jpg	6000	51	0	0	31	514	10	51,3999999999999985789
092923	16:46:30	1	SST	CRTTstop2	tank.jpg	6000	699	0	0	31	514	10	51,3999999999999985789
092923	16:46:30	1	SST	CRTT	deer.jpg	4851,3999999999996362021	553	37	1	32	514	10	51,3999999999999985789
092923	16:46:30	1	SST	CRTT	tank.jpg	5000	428	32	1	33	514	10	51,3999999999999985789
092923	16:46:30	1	SST	CRTT	deer.jpg	5500	583	37	1	34	514	10	51,3999999999999985789
092923	16:46:30	1	SST	CRTTstop	tank.jpg	4500	103	0	0	34	514	20	102,7999999999999971578
092923	16:46:30	1	SST	CRTTstop2	tank.jpg	4500	647	0	0	34	514	20	102,7999999999999971578
092923	16:46:30	1	SST	CRTTstop	deer.jpg	4902,8000000000001818989	360	0	0	34	514	70	359,8000000000000113687
092923	16:46:30	1	SST	CRTTstop2	deer.jpg	4902,8000000000001818989	213	37	1	33	514	70	359,8000000000000113687
092923	16:46:30	1	SST	CRTT	tank.jpg	5000	718	32	1	34	514	70	359,8000000000000113687
092923	16:46:30	1	SST	CRTT	tank.jpg	6000	648	32	1	35	514	70	359,8000000000000113687
092923	16:46:30	1	SST	CRTT	deer.jpg	5500	506	37	1	36	514	70	359,8000000000000113687
092923	16:46:30	1	SST	CRTT	tank.jpg	6000	613	32	1	37	514	70	359,8000000000000113687
092923	16:46:30	1	SST	CRTT	deer.jpg	6000	565	37	1	38	514	70	359,8000000000000113687
092923	16:46:30	1	SST	CRTT	deer.jpg	4000	567	37	1	39	514	70	359,8000000000000113687
092923	16:46:30	1	SST	CRTTstop	tank.jpg	6000	51	0	0	39	514	10	51,3999999999999985789
092923	16:46:30	1	SST	CRTTstop2	tank.jpg	6000	699	0	0	39	514	10	51,3999999999999985789
092923	16:46:30	1	SST	CRTT	tank.jpg	3851,4000000000000909495	546	32	1	40	514	10	51,3999999999999985789
092923	16:46:30	1	SST	CRTTstop	deer.jpg	4000	411	0	0	40	514	80	411,1999999999999886313
092923	16:46:30	1	SST	CRTTstop2	deer.jpg	4000	339	0	0	40	514	80	411,1999999999999886313
092923	16:46:30	1	SST	CRTT	tank.jpg	3711,1999999999998181011	518	32	1	41	514	80	411,1999999999999886313
092923	16:46:30	1	SST	CRTTstop	deer.jpg	6000	103	0	0	41	514	20	102,7999999999999971578
092923	16:46:30	1	SST	CRTTstop2	deer.jpg	6000	647	0	0	41	514	20	102,7999999999999971578
092923	16:46:30	1	SST	CRTTstop	deer.jpg	5402,8000000000001818989	411	0	0	41	514	80	411,1999999999999886313
092923	16:46:30	1	SST	CRTTstop2	deer.jpg	5402,8000000000001818989	162	37	1	40	514	80	411,1999999999999886313
092923	16:46:30	1	SST	CRTT	tank.jpg	6000	619	32	1	41	514	80	411,1999999999999886313
092923	16:46:30	1	SST	CRTT	tank.jpg	5000	491	32	1	42	514	80	411,1999999999999886313
092923	16:46:30	1	SST	CRTTstop	deer.jpg	4000	360	0	0	42	514	70	359,8000000000000113687
092923	16:46:30	1	SST	CRTTstop2	deer.jpg	4000	154	37	1	41	514	70	359,8000000000000113687
092923	16:46:30	1	SST	CRTT	deer.jpg	5000	677	37	1	42	514	70	359,8000000000000113687
092923	16:46:30	1	SST	CRTT	tank.jpg	6000	473	32	1	43	514	70	359,8000000000000113687
092923	16:46:30	1	SST	CRTT	tank.jpg	5500	595	32	1	44	514	70	359,8000000000000113687
092923	16:46:30	1	SST	CRTT	deer.jpg	6000	459	37	1	45	514	70	359,8000000000000113687
092923	16:46:30	1	SST	CRTT	deer.jpg	5000	633	37	1	46	514	70	359,8000000000000113687
092923	16:46:30	1	SST	CRTT	tank.jpg	6000	503	32	1	47	514	70	359,8000000000000113687
092923	16:46:30	1	SST	CRTT	tank.jpg	4000	540	32	1	48	514	70	359,8000000000000113687
092923	16:46:30	1	SST	CRTT	deer.jpg	5000	592	37	1	49	514	70	359,8000000000000113687
092923	16:46:30	1	SST	CRTTstop	tank.jpg	5500	103	0	0	49	514	20	102,7999999999999971578
092923	16:46:30	1	SST	CRTTstop2	tank.jpg	5500	647	0	0	49	514	20	102,7999999999999971578
092923	16:46:30	1	SST	CRTT	deer.jpg	5402,8000000000001818989	567	37	1	50	514	20	102,7999999999999971578
092923	16:46:30	1	SST	CRTTstop	tank.jpg	5000	51	0	0	50	514	10	51,3999999999999985789
092923	16:46:30	1	SST	CRTTstop2	tank.jpg	5000	699	0	0	50	514	10	51,3999999999999985789
092923	16:46:30	1	SST	CRTT	deer.jpg	4851,3999999999996362021	553	37	1	51	514	10	51,3999999999999985789
092923	16:46:30	1	SST	CRTTstop	deer.jpg	6000	103	0	0	51	514	20	102,7999999999999971578
092923	16:46:30	1	SST	CRTTstop2	deer.jpg	6000	647	0	0	51	514	20	102,7999999999999971578
092923	16:46:30	1	SST	CRTTstop	tank.jpg	3902,8000000000001818989	51	0	0	51	514	10	51,3999999999999985789
092923	16:46:30	1	SST	CRTTstop2	tank.jpg	3902,8000000000001818989	699	0	0	51	514	10	51,3999999999999985789
092923	16:46:30	1	SST	CRTTstop	deer.jpg	3851,4000000000000909495	360	0	0	51	514	70	359,8000000000000113687
092923	16:46:30	1	SST	CRTTstop2	deer.jpg	3851,4000000000000909495	213	37	1	50	514	70	359,8000000000000113687
092923	16:46:30	1	SST	CRTT	tank.jpg	5000	646	32	1	51	514	70	359,8000000000000113687
092923	16:46:30	1	SST	CRTTstop	tank.jpg	5000	411	0	0	51	514	80	411,1999999999999886313
092923	16:46:30	1	SST	CRTTstop2	tank.jpg	5000	339	0	0	51	514	80	411,1999999999999886313
092923	16:46:30	1	SST	CRTT	deer.jpg	5211,1999999999998181011	559	37	1	52	514	80	411,1999999999999886313
092923	16:46:30	1	SST	CRTTstop	tank.jpg	5500	51	0	0	52	514	10	51,3999999999999985789
092923	16:46:30	1	SST	CRTTstop2	tank.jpg	5500	699	0	0	52	514	10	51,3999999999999985789
092923	16:46:30	1	SST	CRTT	deer.jpg	4351,3999999999996362021	642	37	1	53	514	10	51,3999999999999985789
092923	16:46:30	1	SST	CRTT	deer.jpg	4500	654	37	1	54	514	10	51,3999999999999985789
092923	16:46:30	1	SST	CRTTstop	tank.jpg	4500	103	0	0	54	514	20	102,7999999999999971578
092923	16:46:30	1	SST	CRTTstop2	tank.jpg	4500	647	0	0	54	514	20	102,7999999999999971578
092923	16:46:30	1	SST	CRTTstop	tank.jpg	3402,8000000000001818989	360	0	0	54	514	70	359,8000000000000113687
092923	16:46:30	1	SST	CRTTstop2	tank.jpg	3402,8000000000001818989	390	0	0	54	514	70	359,8000000000000113687
092923	16:46:30	1	SST	CRTTstop	deer.jpg	5159,8000000000001818989	411	0	0	54	514	80	411,1999999999999886313
092923	16:46:30	1	SST	CRTTstop2	deer.jpg	5159,8000000000001818989	192	37	1	53	514	80	411,1999999999999886313
092923	16:46:30	1	SST	CRTTstop	deer.jpg	4500	360	0	0	53	514	70	359,8000000000000113687
092923	16:46:30	1	SST	CRTTstop2	deer.jpg	4500	390	0	0	53	514	70	359,8000000000000113687
092923	16:46:30	1	SST	CRTT	tank.jpg	3659,8000000000001818989	560	32	1	54	514	70	359,8000000000000113687
092923	16:46:30	1	SST	CRTT	deer.jpg	4500	510	37	1	55	514	70	359,8000000000000113687
092923	16:46:30	1	SST	CRTT	tank.jpg	6000	750	0	0	54	514	70	359,8000000000000113687
092923	16:46:30	1	SST	CRTTstop	tank.jpg	4500	51	0	0	54	514	10	51,3999999999999985789
092923	16:46:30	1	SST	CRTTstop2	tank.jpg	4500	699	0	0	54	514	10	51,3999999999999985789
092923	16:46:30	1	SST	CRTT	deer.jpg	5351,3999999999996362021	573	37	1	55	514	10	51,3999999999999985789
092923	16:46:30	1	SST	CRTT	tank.jpg	6000	518	32	1	56	514	10	51,3999999999999985789
092923	16:46:30	1	SST	CRTT	deer.jpg	5000	586	37	1	57	514	10	51,3999999999999985789
092923	16:46:30	1	SST	CRTT	deer.jpg	6000	682	37	1	58	514	10	51,3999999999999985789
092923	16:46:30	1	SST	CRTT	tank.jpg	4000	671	32	1	59	514	10	51,3999999999999985789
092923	16:46:30	1	SST	CRTT	deer.jpg	5500	505	37	1	60	514	10	51,3999999999999985789
092923	16:46:30	1	SST	CRTT	tank.jpg	5000	445	32	1	61	514	10	51,3999999999999985789
092923	16:46:30	1	SST	CRTT	deer.jpg	4000	565	37	1	62	514	10	51,3999999999999985789
092923	16:46:30	1	SST	CRTTstop	tank.jpg	5500	411	0	0	62	514	80	411,1999999999999886313
092923	16:46:30	1	SST	CRTTstop2	tank.jpg	5500	113	32	1	61	514	80	411,1999999999999886313
092923	16:46:30	1	SST	CRTT	tank.jpg	5500	562	32	1	62	514	80	411,1999999999999886313
092923	16:46:30	1	SST	CRTTstop	deer.jpg	5000	103	0	0	62	514	20	102,7999999999999971578
092923	16:46:30	1	SST	CRTTstop2	deer.jpg	5000	647	0	0	62	514	20	102,7999999999999971578
092923	16:46:30	1	SST	CRTT	tank.jpg	4902,8000000000001818989	611	32	1	63	514	20	102,7999999999999971578
092923	16:46:30	1	SST	CRTT	deer.jpg	4000	589	37	1	64	514	20	102,7999999999999971578
092923	16:46:30	1	SST	CRTT	deer.jpg	4500	666	37	1	65	514	20	102,7999999999999971578
092923	16:46:30	1	SST	CRTTstop	tank.jpg	5500	411	0	0	65	514	80	411,1999999999999886313
092923	16:46:30	1	SST	CRTTstop2	tank.jpg	5500	266	32	1	64	514	80	411,1999999999999886313
092923	16:46:30	1	SST	CRTTstop	tank.jpg	4500	360	0	0	64	514	70	359,8000000000000113687
092923	16:46:30	1	SST	CRTTstop2	tank.jpg	4500	390	0	0	64	514	70	359,8000000000000113687
092923	16:46:30	1	SST	CRTT	deer.jpg	5659,8000000000001818989	652	37	1	65	514	70	359,8000000000000113687
092923	16:46:30	1	SST	CRTT	tank.jpg	4000	627	32	1	66	514	70	359,8000000000000113687
092923	16:46:30	1	SST	CRTT	deer.jpg	5500	598	37	1	67	514	70	359,8000000000000113687
092923	16:46:30	1	SST	CRTT	deer.jpg	5500	570	37	1	68	514	70	359,8000000000000113687
092923	16:46:30	1	SST	CRTTstop	tank.jpg	4000	51	0	0	68	514	10	51,3999999999999985789
092923	16:46:30	1	SST	CRTTstop2	tank.jpg	4000	699	0	0	68	514	10	51,3999999999999985789
092923	16:46:30	1	SST	CRTT	tank.jpg	3851,4000000000000909495	559	32	1	69	514	10	51,3999999999999985789
092923	16:46:30	1	SST	CRTT	deer.jpg	5000	522	37	1	70	514	10	51,3999999999999985789
092923	16:46:30	1	SST	CRTT	deer.jpg	6000	564	37	1	71	514	10	51,3999999999999985789
092923	16:46:30	1	SST	CRTTstop	tank.jpg	4500	103	0	0	71	514	20	102,7999999999999971578
092923	16:46:30	1	SST	CRTTstop2	tank.jpg	4500	647	0	0	71	514	20	102,7999999999999971578
092923	16:46:30	1	SST	CRTTstop	tank.jpg	3902,8000000000001818989	411	0	0	71	514	80	411,1999999999999886313
092923	16:46:30	1	SST	CRTTstop2	tank.jpg	3902,8000000000001818989	218	32	1	70	514	80	411,1999999999999886313
092923	16:46:30	1	SST	CRTT	deer.jpg	5500	629	37	1	71	514	80	411,1999999999999886313
092923	16:46:30	1	SST	CRTTstop	tank.jpg	5000	360	0	0	71	514	70	359,8000000000000113687
092923	16:46:30	1	SST	CRTTstop2	tank.jpg	5000	390	0	0	71	514	70	359,8000000000000113687
092923	16:46:30	1	SST	CRTT	deer.jpg	5659,8000000000001818989	533	37	1	72	514	70	359,8000000000000113687
