date	time	subject	blockcode	trialcode	picture.target.currentitem	values.stiminterval	latency	response	correct	values.score	values.AverageRTpractice	values.SSDcoeffitient	values.SSD
060323	13:00:38	1	Practice	CRTTpractice	tank.jpg	5000	750	0	0	-1	0	0	0
060323	13:00:38	1	Practice	CRTTpractice	deer.jpg	5000	650	37	1	0	0	0	0
060323	13:00:38	1	Practice	CRTTpractice	deer.jpg	5000	528	37	1	1	0	0	0
060323	13:00:38	1	Practice	CRTTpractice	tank.jpg	5500	671	32	1	2	0	0	0
060323	13:00:38	1	Practice	CRTTpractice	deer.jpg	5000	541	37	1	3	0	0	0
060323	13:00:38	1	Practice	CRTTpractice	tank.jpg	6000	567	32	1	4	0	0	0
060323	13:00:38	1	Practice	CRTTpractice	deer.jpg	4000	522	37	1	5	0	0	0
060323	13:00:38	1	Practice	CRTTpractice	tank.jpg	6000	620	32	1	6	0	0	0
060323	13:00:38	1	Practice	CRTTpractice	deer.jpg	4000	597	37	1	7	0	0	0
060323	13:00:38	1	Practice	CRTTpractice	tank.jpg	5000	653	32	1	8	0	0	0
060323	13:00:38	1	Practice	CRTTpractice	tank.jpg	5000	508	32	1	9	0	0	0
060323	13:00:38	1	Practice	CRTTpractice	deer.jpg	6000	623	37	1	10	0	0	0
060323	13:00:38	1	Practice	CRTTpractice	tank.jpg	5500	594	32	1	11	0	0	0
060323	13:00:38	1	Practice	CRTTpractice	deer.jpg	4500	520	37	1	12	0	0	0
060323	13:00:38	1	Practice	CRTTpractice	deer.jpg	4000	605	37	1	13	0	0	0
060323	13:00:38	1	Practice	CRTTpractice	tank.jpg	4000	591	32	1	14	0	0	0
060323	13:00:38	1	Practice	CRTTpractice	tank.jpg	4000	576	32	1	15	0	0	0
060323	13:00:38	1	Practice	CRTTpractice	deer.jpg	5500	525	37	1	16	0	0	0
060323	13:00:38	1	Practice	CRTTpractice	deer.jpg	5000	569	37	1	17	0	0	0
060323	13:00:38	1	Practice	CRTTpractice	tank.jpg	4000	532	32	1	18	0	0	0
060323	13:00:38	1	Practice	CRTTpractice	tank.jpg	4500	579	32	1	19	0	0	0
060323	13:00:38	1	Practice	CRTTpractice	deer.jpg	5000	589	37	1	20	0	0	0
060323	13:00:38	1	Practice	CRTTpractice	deer.jpg	5500	585	37	1	21	0	0	0
060323	13:00:38	1	Practice	CRTTpractice	tank.jpg	5000	610	32	1	22	0	0	0
060323	13:00:38	1	Practice	CRTTpractice	tank.jpg	6000	658	32	1	23	0	0	0
060323	13:00:38	1	Practice	CRTTpractice	deer.jpg	4000	601	37	1	24	0	0	0
060323	13:00:38	1	Practice	CRTTpractice	deer.jpg	6000	665	37	1	25	0	0	0
060323	13:00:38	1	Practice	CRTTpractice	tank.jpg	6000	566	32	1	26	0	0	0
060323	13:00:38	1	Practice	CRTTpractice	tank.jpg	5500	627	32	1	27	0	0	0
060323	13:00:38	1	Practice	CRTTpractice	deer.jpg	4000	750	0	0	26	0	0	0
060323	13:00:38	1	SST	CRTT	tank.jpg	4500	688	32	1	27	599	0	0
060323	13:00:38	1	SST	CRTT	deer.jpg	6000	750	0	0	26	599	0	0
060323	13:00:38	1	SST	CRTT	tank.jpg	4000	583	32	1	27	599	0	0
060323	13:00:38	1	SST	CRTT	deer.jpg	4000	577	37	1	28	599	0	0
060323	13:00:38	1	SST	CRTTstop	deer.jpg	6000	120	0	0	28	599	20	119,7999999999999971578
060323	13:00:38	1	SST	CRTTstop2	deer.jpg	6000	630	0	0	28	599	20	119,7999999999999971578
060323	13:00:38	1	SST	CRTTstop	tank.jpg	3419,8000000000001818989	479	0	0	28	599	80	479,1999999999999886313
060323	13:00:38	1	SST	CRTTstop2	tank.jpg	3419,8000000000001818989	18	32	1	27	599	80	479,1999999999999886313
060323	13:00:38	1	SST	CRTTstop	tank.jpg	5000	60	0	0	27	599	10	59,8999999999999985789
060323	13:00:38	1	SST	CRTTstop2	tank.jpg	5000	690	0	0	27	599	10	59,8999999999999985789
060323	13:00:38	1	SST	CRTT	deer.jpg	5359,8999999999996362021	590	37	1	28	599	10	59,8999999999999985789
060323	13:00:38	1	SST	CRTT	tank.jpg	5500	714	32	1	29	599	10	59,8999999999999985789
060323	13:00:38	1	SST	CRTT	deer.jpg	6000	637	37	1	30	599	10	59,8999999999999985789
060323	13:00:38	1	SST	CRTT	deer.jpg	4000	638	37	1	31	599	10	59,8999999999999985789
060323	13:00:38	1	SST	CRTT	tank.jpg	4000	533	32	1	32	599	10	59,8999999999999985789
060323	13:00:38	1	SST	CRTTstop	deer.jpg	6000	419	0	0	32	599	70	419,3000000000000113687
060323	13:00:38	1	SST	CRTTstop2	deer.jpg	6000	109	37	1	31	599	70	419,3000000000000113687
060323	13:00:38	1	SST	CRTT	tank.jpg	6000	554	32	1	32	599	70	419,3000000000000113687
060323	13:00:38	1	SST	CRTTstop	tank.jpg	4500	479	0	0	32	599	80	479,1999999999999886313
060323	13:00:38	1	SST	CRTTstop2	tank.jpg	4500	132	32	1	31	599	80	479,1999999999999886313
060323	13:00:38	1	SST	CRTTstop	deer.jpg	4500	419	0	0	31	599	70	419,3000000000000113687
060323	13:00:38	1	SST	CRTTstop2	deer.jpg	4500	259	37	1	30	599	70	419,3000000000000113687
060323	13:00:38	1	SST	CRTT	deer.jpg	5000	730	37	1	31	599	70	419,3000000000000113687
060323	13:00:38	1	SST	CRTT	tank.jpg	6000	724	32	1	32	599	70	419,3000000000000113687
060323	13:00:38	1	SST	CRTT	deer.jpg	6000	750	0	0	31	599	70	419,3000000000000113687
060323	13:00:38	1	SST	CRTTstop	tank.jpg	4000	120	0	0	31	599	20	119,7999999999999971578
060323	13:00:38	1	SST	CRTTstop2	tank.jpg	4000	630	0	0	31	599	20	119,7999999999999971578
060323	13:00:38	1	SST	CRTT	deer.jpg	4419,8000000000001818989	532	37	1	32	599	20	119,7999999999999971578
060323	13:00:38	1	SST	CRTT	tank.jpg	4500	684	32	1	33	599	20	119,7999999999999971578
060323	13:00:38	1	SST	CRTTstop	tank.jpg	6000	60	0	0	33	599	10	59,8999999999999985789
060323	13:00:38	1	SST	CRTTstop2	tank.jpg	6000	690	0	0	33	599	10	59,8999999999999985789
060323	13:00:38	1	SST	CRTT	deer.jpg	3359,9000000000000909495	717	37	1	34	599	10	59,8999999999999985789
060323	13:00:38	1	SST	CRTT	deer.jpg	5000	750	0	0	33	599	10	59,8999999999999985789
060323	13:00:38	1	SST	CRTT	tank.jpg	5000	691	32	1	34	599	10	59,8999999999999985789
060323	13:00:38	1	SST	CRTT	tank.jpg	4000	529	32	1	35	599	10	59,8999999999999985789
060323	13:00:38	1	SST	CRTTstop	deer.jpg	6000	419	0	0	35	599	70	419,3000000000000113687
060323	13:00:38	1	SST	CRTTstop2	deer.jpg	6000	202	37	1	34	599	70	419,3000000000000113687
060323	13:00:38	1	SST	CRTT	deer.jpg	4500	750	0	0	33	599	70	419,3000000000000113687
060323	13:00:38	1	SST	CRTT	tank.jpg	5500	750	0	0	32	599	70	419,3000000000000113687
060323	13:00:38	1	SST	CRTTstop	tank.jpg	4000	120	0	0	32	599	20	119,7999999999999971578
060323	13:00:38	1	SST	CRTTstop2	tank.jpg	4000	630	0	0	32	599	20	119,7999999999999971578
060323	13:00:38	1	SST	CRTT	deer.jpg	4419,8000000000001818989	659	37	1	33	599	20	119,7999999999999971578
060323	13:00:38	1	SST	CRTT	deer.jpg	6000	750	0	0	32	599	20	119,7999999999999971578
060323	13:00:38	1	SST	CRTTstop	tank.jpg	5500	60	0	0	32	599	10	59,8999999999999985789
060323	13:00:38	1	SST	CRTTstop2	tank.jpg	5500	690	0	0	32	599	10	59,8999999999999985789
060323	13:00:38	1	SST	CRTT	deer.jpg	3859,9000000000000909495	703	37	1	33	599	10	59,8999999999999985789
060323	13:00:38	1	SST	CRTT	tank.jpg	4500	680	32	1	34	599	10	59,8999999999999985789
060323	13:00:38	1	SST	CRTT	tank.jpg	4000	750	0	0	33	599	10	59,8999999999999985789
060323	13:00:38	1	SST	CRTTstop	deer.jpg	6000	479	0	0	33	599	80	479,1999999999999886313
060323	13:00:38	1	SST	CRTTstop2	deer.jpg	6000	219	37	1	32	599	80	479,1999999999999886313
060323	13:00:38	1	SST	CRTTstop	deer.jpg	5000	419	0	0	32	599	70	419,3000000000000113687
060323	13:00:38	1	SST	CRTTstop2	deer.jpg	5000	225	37	1	31	599	70	419,3000000000000113687
060323	13:00:38	1	SST	CRTTstop	tank.jpg	6000	479	0	0	31	599	80	479,1999999999999886313
060323	13:00:38	1	SST	CRTTstop2	tank.jpg	6000	173	32	1	30	599	80	479,1999999999999886313
060323	13:00:38	1	SST	CRTT	tank.jpg	5000	711	32	1	31	599	80	479,1999999999999886313
060323	13:00:38	1	SST	CRTT	deer.jpg	6000	618	37	1	32	599	80	479,1999999999999886313
060323	13:00:38	1	SST	CRTT	tank.jpg	4000	683	32	1	33	599	80	479,1999999999999886313
060323	13:00:38	1	SST	CRTT	deer.jpg	5000	750	0	0	32	599	80	479,1999999999999886313
060323	13:00:38	1	SST	CRTT	deer.jpg	5000	554	37	1	33	599	80	479,1999999999999886313
060323	13:00:38	1	SST	CRTTstop	tank.jpg	4500	120	0	0	33	599	20	119,7999999999999971578
060323	13:00:38	1	SST	CRTTstop2	tank.jpg	4500	630	0	0	33	599	20	119,7999999999999971578
060323	13:00:38	1	SST	CRTT	deer.jpg	4419,8000000000001818989	620	37	1	34	599	20	119,7999999999999971578
060323	13:00:38	1	SST	CRTTstop	tank.jpg	6000	60	0	0	34	599	10	59,8999999999999985789
060323	13:00:38	1	SST	CRTTstop2	tank.jpg	6000	690	0	0	34	599	10	59,8999999999999985789
060323	13:00:38	1	SST	CRTT	deer.jpg	5359,8999999999996362021	671	37	1	35	599	10	59,8999999999999985789
060323	13:00:38	1	SST	CRTTstop	tank.jpg	5500	419	0	0	35	599	70	419,3000000000000113687
060323	13:00:38	1	SST	CRTTstop2	tank.jpg	5500	230	32	1	34	599	70	419,3000000000000113687
060323	13:00:38	1	SST	CRTT	deer.jpg	5000	750	0	0	33	599	70	419,3000000000000113687
060323	13:00:38	1	SST	CRTT	tank.jpg	5000	728	32	1	34	599	70	419,3000000000000113687
060323	13:00:38	1	SST	CRTTstop	tank.jpg	6000	120	0	0	34	599	20	119,7999999999999971578
060323	13:00:38	1	SST	CRTTstop2	tank.jpg	6000	630	0	0	34	599	20	119,7999999999999971578
060323	13:00:38	1	SST	CRTT	deer.jpg	4419,8000000000001818989	750	0	0	33	599	20	119,7999999999999971578
060323	13:00:38	1	SST	CRTTstop	deer.jpg	6000	60	0	0	33	599	10	59,8999999999999985789
060323	13:00:38	1	SST	CRTTstop2	deer.jpg	6000	690	0	0	33	599	10	59,8999999999999985789
060323	13:00:38	1	SST	CRTT	tank.jpg	3359,9000000000000909495	661	32	1	34	599	10	59,8999999999999985789
060323	13:00:38	1	SST	CRTTstop	tank.jpg	5500	479	0	0	34	599	80	479,1999999999999886313
060323	13:00:38	1	SST	CRTTstop2	tank.jpg	5500	178	32	1	33	599	80	479,1999999999999886313
060323	13:00:38	1	SST	CRTT	deer.jpg	4000	750	0	0	32	599	80	479,1999999999999886313
060323	13:00:38	1	SST	CRTTstop	tank.jpg	5000	419	0	0	32	599	70	419,3000000000000113687
060323	13:00:38	1	SST	CRTTstop2	tank.jpg	5000	190	32	1	31	599	70	419,3000000000000113687
060323	13:00:38	1	SST	CRTT	deer.jpg	5000	743	37	1	32	599	70	419,3000000000000113687
060323	13:00:38	1	SST	CRTTstop	deer.jpg	5500	120	0	0	32	599	20	119,7999999999999971578
060323	13:00:38	1	SST	CRTTstop2	deer.jpg	5500	630	0	0	32	599	20	119,7999999999999971578
060323	13:00:38	1	SST	CRTT	tank.jpg	3919,8000000000001818989	621	32	1	33	599	20	119,7999999999999971578
060323	13:00:38	1	SST	CRTT	deer.jpg	6000	740	37	1	34	599	20	119,7999999999999971578
060323	13:00:38	1	SST	CRTT	tank.jpg	4000	728	32	1	35	599	20	119,7999999999999971578
060323	13:00:38	1	SST	CRTTstop	deer.jpg	5000	479	0	0	35	599	80	479,1999999999999886313
060323	13:00:38	1	SST	CRTTstop2	deer.jpg	5000	247	37	1	34	599	80	479,1999999999999886313
060323	13:00:38	1	SST	CRTT	tank.jpg	5500	750	0	0	33	599	80	479,1999999999999886313
060323	13:00:38	1	SST	CRTT	deer.jpg	5500	648	37	1	34	599	80	479,1999999999999886313
060323	13:00:38	1	SST	CRTT	tank.jpg	6000	638	32	1	35	599	80	479,1999999999999886313
060323	13:00:38	1	SST	CRTTstop	tank.jpg	4000	60	0	0	35	599	10	59,8999999999999985789
060323	13:00:38	1	SST	CRTTstop2	tank.jpg	4000	690	0	0	35	599	10	59,8999999999999985789
060323	13:00:38	1	SST	CRTT	deer.jpg	5359,8999999999996362021	674	37	1	36	599	10	59,8999999999999985789
060323	13:00:38	1	SST	CRTT	tank.jpg	6000	678	32	1	37	599	10	59,8999999999999985789
060323	13:00:38	1	SST	CRTTstop	deer.jpg	4000	419	0	0	37	599	70	419,3000000000000113687
060323	13:00:38	1	SST	CRTTstop2	deer.jpg	4000	331	0	0	37	599	70	419,3000000000000113687
060323	13:00:38	1	SST	CRTT	tank.jpg	4219,3000000000001818989	750	0	0	36	599	70	419,3000000000000113687
060323	13:00:38	1	SST	CRTTstop	deer.jpg	4000	120	0	0	36	599	20	119,7999999999999971578
060323	13:00:38	1	SST	CRTTstop2	deer.jpg	4000	630	0	0	36	599	20	119,7999999999999971578
060323	13:00:38	1	SST	CRTT	deer.jpg	5419,8000000000001818989	669	37	1	37	599	20	119,7999999999999971578
060323	13:00:38	1	SST	CRTTstop	tank.jpg	5500	479	0	0	37	599	80	479,1999999999999886313
060323	13:00:38	1	SST	CRTTstop2	tank.jpg	5500	186	32	1	36	599	80	479,1999999999999886313
060323	13:00:38	1	SST	CRTTstop	deer.jpg	4500	60	0	0	36	599	10	59,8999999999999985789
060323	13:00:38	1	SST	CRTTstop2	deer.jpg	4500	690	0	0	36	599	10	59,8999999999999985789
060323	13:00:38	1	SST	CRTT	tank.jpg	3859,9000000000000909495	681	32	1	37	599	10	59,8999999999999985789
060323	13:00:38	1	SST	CRTT	deer.jpg	4000	504	37	1	38	599	10	59,8999999999999985789
060323	13:00:38	1	SST	CRTT	tank.jpg	4000	629	32	1	39	599	10	59,8999999999999985789
060323	13:00:38	1	SST	CRTT	deer.jpg	5500	696	37	1	40	599	10	59,8999999999999985789
060323	13:00:38	1	SST	CRTT	tank.jpg	4000	750	0	0	39	599	10	59,8999999999999985789
060323	13:00:38	1	SST	CRTT	tank.jpg	5000	471	32	1	40	599	10	59,8999999999999985789
060323	13:00:38	1	SST	CRTT	deer.jpg	4000	575	37	1	41	599	10	59,8999999999999985789
060323	13:00:38	1	SST	CRTT	deer.jpg	5000	632	37	1	42	599	10	59,8999999999999985789
060323	13:00:38	1	SST	CRTT	tank.jpg	5000	559	32	1	43	599	10	59,8999999999999985789
060323	13:00:38	1	SST	CRTTstop	tank.jpg	5000	479	0	0	43	599	80	479,1999999999999886313
060323	13:00:38	1	SST	CRTTstop2	tank.jpg	5000	78	32	1	42	599	80	479,1999999999999886313
060323	13:00:38	1	SST	CRTT	deer.jpg	6000	491	37	1	43	599	80	479,1999999999999886313
060323	13:00:38	1	SST	CRTTstop	deer.jpg	4500	120	0	0	43	599	20	119,7999999999999971578
060323	13:00:38	1	SST	CRTTstop2	deer.jpg	4500	630	0	0	43	599	20	119,7999999999999971578
060323	13:00:38	1	SST	CRTT	tank.jpg	5419,8000000000001818989	526	32	1	44	599	20	119,7999999999999971578
060323	13:00:38	1	SST	CRTT	tank.jpg	5000	474	32	1	45	599	20	119,7999999999999971578
060323	13:00:38	1	SST	CRTT	deer.jpg	4500	572	37	1	46	599	20	119,7999999999999971578
060323	13:00:38	1	SST	CRTTstop	tank.jpg	5500	419	0	0	46	599	70	419,3000000000000113687
060323	13:00:38	1	SST	CRTTstop2	tank.jpg	5500	104	32	1	45	599	70	419,3000000000000113687
060323	13:00:38	1	SST	CRTT	deer.jpg	4000	486	37	1	46	599	70	419,3000000000000113687
060323	13:00:38	1	SST	CRTTstop	tank.jpg	4000	60	0	0	46	599	10	59,8999999999999985789
060323	13:00:38	1	SST	CRTTstop2	tank.jpg	4000	690	0	0	46	599	10	59,8999999999999985789
060323	13:00:38	1	SST	CRTT	deer.jpg	4359,8999999999996362021	631	37	1	47	599	10	59,8999999999999985789
060323	13:00:38	1	SST	CRTTstop	tank.jpg	4000	60	0	0	47	599	10	59,8999999999999985789
060323	13:00:38	1	SST	CRTTstop2	tank.jpg	4000	690	0	0	47	599	10	59,8999999999999985789
060323	13:00:38	1	SST	CRTTstop	deer.jpg	3359,9000000000000909495	120	0	0	47	599	20	119,7999999999999971578
060323	13:00:38	1	SST	CRTTstop2	deer.jpg	3359,9000000000000909495	630	0	0	47	599	20	119,7999999999999971578
060323	13:00:38	1	SST	CRTT	deer.jpg	5419,8000000000001818989	551	37	1	48	599	20	119,7999999999999971578
