date	time	subject	blockcode	trialcode	picture.target.currentitem	values.stiminterval	latency	response	correct	values.score	values.AverageRTpractice	values.SSDcoeffitient	values.SSD
100123	12:34:26	1	Practice	CRTTpractice	tank.jpg	4000	602	32	1	1	0	0	0
100123	12:34:26	1	Practice	CRTTpractice	deer.jpg	5000	690	37	1	2	0	0	0
100123	12:34:26	1	Practice	CRTTpractice	tank.jpg	4500	612	32	1	3	0	0	0
100123	12:34:26	1	Practice	CRTTpractice	deer.jpg	4000	645	37	1	4	0	0	0
100123	12:34:26	1	Practice	CRTTpractice	tank.jpg	6000	571	32	1	5	0	0	0
100123	12:34:26	1	Practice	CRTTpractice	deer.jpg	5000	589	37	1	6	0	0	0
100123	12:34:26	1	Practice	CRTTpractice	tank.jpg	4000	599	32	1	7	0	0	0
100123	12:34:26	1	Practice	CRTTpractice	deer.jpg	4500	620	37	1	8	0	0	0
100123	12:34:26	1	Practice	CRTTpractice	deer.jpg	4000	666	37	1	9	0	0	0
100123	12:34:26	1	Practice	CRTTpractice	tank.jpg	4500	556	32	1	10	0	0	0
100123	12:34:26	1	Practice	CRTTpractice	tank.jpg	4500	539	32	1	11	0	0	0
100123	12:34:26	1	Practice	CRTTpractice	deer.jpg	4500	699	37	1	12	0	0	0
100123	12:34:26	1	Practice	CRTTpractice	deer.jpg	4500	652	37	1	13	0	0	0
100123	12:34:26	1	Practice	CRTTpractice	tank.jpg	4500	542	32	1	14	0	0	0
100123	12:34:26	1	Practice	CRTTpractice	deer.jpg	4000	586	37	1	15	0	0	0
100123	12:34:26	1	Practice	CRTTpractice	tank.jpg	6000	562	32	1	16	0	0	0
100123	12:34:26	1	Practice	CRTTpractice	tank.jpg	4000	566	32	1	17	0	0	0
100123	12:34:26	1	Practice	CRTTpractice	deer.jpg	4500	740	37	1	18	0	0	0
100123	12:34:26	1	Practice	CRTTpractice	deer.jpg	6000	574	37	1	19	0	0	0
100123	12:34:26	1	Practice	CRTTpractice	tank.jpg	5000	584	32	1	20	0	0	0
100123	12:34:26	1	Practice	CRTTpractice	tank.jpg	5500	604	32	1	21	0	0	0
100123	12:34:26	1	Practice	CRTTpractice	deer.jpg	6000	676	37	1	22	0	0	0
100123	12:34:26	1	Practice	CRTTpractice	tank.jpg	4000	570	32	1	23	0	0	0
100123	12:34:26	1	Practice	CRTTpractice	deer.jpg	6000	603	37	1	24	0	0	0
100123	12:34:26	1	Practice	CRTTpractice	deer.jpg	5000	603	37	1	25	0	0	0
100123	12:34:26	1	Practice	CRTTpractice	tank.jpg	5500	511	32	1	26	0	0	0
100123	12:34:26	1	Practice	CRTTpractice	deer.jpg	4500	584	37	1	27	0	0	0
100123	12:34:26	1	Practice	CRTTpractice	tank.jpg	5500	596	32	1	28	0	0	0
100123	12:34:26	1	Practice	CRTTpractice	deer.jpg	5500	601	37	1	29	0	0	0
100123	12:34:26	1	Practice	CRTTpractice	tank.jpg	4000	594	32	1	30	0	0	0
100123	12:34:26	1	SST	CRTT	deer.jpg	5000	577	37	1	31	605	0	0
100123	12:34:26	1	SST	CRTTstop	tank.jpg	6000	484	0	0	31	605	80	484
100123	12:34:26	1	SST	CRTTstop2	tank.jpg	6000	5	32	1	30	605	80	484
100123	12:34:26	1	SST	CRTT	tank.jpg	5000	686	32	1	31	605	80	484
100123	12:34:26	1	SST	CRTT	deer.jpg	4000	580	37	1	32	605	80	484
100123	12:34:26	1	SST	CRTT	deer.jpg	5500	673	37	1	33	605	80	484
100123	12:34:26	1	SST	CRTT	tank.jpg	5000	750	0	0	32	605	80	484
100123	12:34:26	1	SST	CRTTstop	deer.jpg	5500	121	0	0	32	605	20	121
100123	12:34:26	1	SST	CRTTstop2	deer.jpg	5500	629	0	0	32	605	20	121
100123	12:34:26	1	SST	CRTT	tank.jpg	4921	707	32	1	33	605	20	121
100123	12:34:26	1	SST	CRTT	tank.jpg	4500	707	32	1	34	605	20	121
100123	12:34:26	1	SST	CRTT	deer.jpg	4500	750	0	0	33	605	20	121
100123	12:34:26	1	SST	CRTTstop	tank.jpg	4000	424	0	0	33	605	70	423,5
100123	12:34:26	1	SST	CRTTstop2	tank.jpg	4000	327	0	0	33	605	70	423,5
100123	12:34:26	1	SST	CRTT	deer.jpg	4723,5	558	37	1	34	605	70	423,5
100123	12:34:26	1	SST	CRTT	deer.jpg	5000	648	37	1	35	605	70	423,5
100123	12:34:26	1	SST	CRTTstop	tank.jpg	5500	61	0	0	35	605	10	60,5
100123	12:34:26	1	SST	CRTTstop2	tank.jpg	5500	690	0	0	35	605	10	60,5
100123	12:34:26	1	SST	CRTT	tank.jpg	5360,5	558	32	1	36	605	10	60,5
100123	12:34:26	1	SST	CRTTstop	deer.jpg	4000	61	0	0	36	605	10	60,5
100123	12:34:26	1	SST	CRTTstop2	deer.jpg	4000	690	0	0	36	605	10	60,5
100123	12:34:26	1	SST	CRTT	tank.jpg	5360,5	621	32	1	37	605	10	60,5
100123	12:34:26	1	SST	CRTT	deer.jpg	5000	725	37	1	38	605	10	60,5
100123	12:34:26	1	SST	CRTTstop	deer.jpg	5000	484	0	0	38	605	80	484
100123	12:34:26	1	SST	CRTTstop2	deer.jpg	5000	132	37	1	37	605	80	484
100123	12:34:26	1	SST	CRTTstop	tank.jpg	5000	121	0	0	37	605	20	121
100123	12:34:26	1	SST	CRTTstop2	tank.jpg	5000	629	0	0	37	605	20	121
100123	12:34:26	1	SST	CRTT	deer.jpg	4421	626	37	1	38	605	20	121
100123	12:34:26	1	SST	CRTT	tank.jpg	4000	750	0	0	37	605	20	121
100123	12:34:26	1	SST	CRTT	tank.jpg	4500	634	32	1	38	605	20	121
100123	12:34:26	1	SST	CRTT	deer.jpg	5500	636	37	1	39	605	20	121
100123	12:34:26	1	SST	CRTTstop	tank.jpg	6000	424	0	0	39	605	70	423,5
100123	12:34:26	1	SST	CRTTstop2	tank.jpg	6000	160	32	1	38	605	70	423,5
100123	12:34:26	1	SST	CRTT	deer.jpg	5500	551	37	1	39	605	70	423,5
100123	12:34:26	1	SST	CRTT	deer.jpg	4000	722	37	1	40	605	70	423,5
100123	12:34:26	1	SST	CRTTstop	tank.jpg	4500	424	0	0	40	605	70	423,5
100123	12:34:26	1	SST	CRTTstop2	tank.jpg	4500	327	0	0	40	605	70	423,5
100123	12:34:26	1	SST	CRTT	deer.jpg	5223,5	652	37	1	41	605	70	423,5
100123	12:34:26	1	SST	CRTT	tank.jpg	5500	750	0	0	40	605	70	423,5
100123	12:34:26	1	SST	CRTT	tank.jpg	5500	588	32	1	41	605	70	423,5
100123	12:34:26	1	SST	CRTTstop	deer.jpg	4500	484	0	0	41	605	80	484
100123	12:34:26	1	SST	CRTTstop2	deer.jpg	4500	172	37	1	40	605	80	484
100123	12:34:26	1	SST	CRTTstop	deer.jpg	4500	121	0	0	40	605	20	121
100123	12:34:26	1	SST	CRTTstop2	deer.jpg	4500	629	0	0	40	605	20	121
100123	12:34:26	1	SST	CRTT	tank.jpg	5421	677	32	1	41	605	20	121
100123	12:34:26	1	SST	CRTTstop	tank.jpg	5500	61	0	0	41	605	10	60,5
100123	12:34:26	1	SST	CRTTstop2	tank.jpg	5500	690	0	0	41	605	10	60,5
100123	12:34:26	1	SST	CRTT	deer.jpg	4860,5	519	37	1	42	605	10	60,5
100123	12:34:26	1	SST	CRTT	tank.jpg	4500	727	32	1	43	605	10	60,5
100123	12:34:26	1	SST	CRTTstop	deer.jpg	4000	61	0	0	43	605	10	60,5
100123	12:34:26	1	SST	CRTTstop2	deer.jpg	4000	690	0	0	43	605	10	60,5
100123	12:34:26	1	SST	CRTT	deer.jpg	3860,5	701	37	1	44	605	10	60,5
100123	12:34:26	1	SST	CRTTstop	tank.jpg	4500	424	0	0	44	605	70	423,5
100123	12:34:26	1	SST	CRTTstop2	tank.jpg	4500	252	32	1	43	605	70	423,5
100123	12:34:26	1	SST	CRTT	deer.jpg	4500	575	37	1	44	605	70	423,5
100123	12:34:26	1	SST	CRTT	tank.jpg	4500	750	0	0	43	605	70	423,5
100123	12:34:26	1	SST	CRTT	deer.jpg	4500	404	32	0	42	605	70	423,5
100123	12:34:26	1	SST	CRTT	tank.jpg	4500	625	32	1	43	605	70	423,5
100123	12:34:26	1	SST	CRTT	tank.jpg	6000	544	32	1	44	605	70	423,5
100123	12:34:26	1	SST	CRTT	deer.jpg	6000	633	37	1	45	605	70	423,5
100123	12:34:26	1	SST	CRTT	deer.jpg	5500	620	37	1	46	605	70	423,5
100123	12:34:26	1	SST	CRTTstop	tank.jpg	6000	484	0	0	46	605	80	484
100123	12:34:26	1	SST	CRTTstop2	tank.jpg	6000	126	32	1	45	605	80	484
100123	12:34:26	1	SST	CRTT	deer.jpg	5000	674	37	1	46	605	80	484
100123	12:34:26	1	SST	CRTT	tank.jpg	4000	489	32	1	47	605	80	484
100123	12:34:26	1	SST	CRTTstop	tank.jpg	4500	121	0	0	47	605	20	121
100123	12:34:26	1	SST	CRTTstop2	tank.jpg	4500	629	0	0	47	605	20	121
100123	12:34:26	1	SST	CRTT	deer.jpg	4421	621	37	1	48	605	20	121
100123	12:34:26	1	SST	CRTTstop	tank.jpg	5000	61	0	0	48	605	10	60,5
100123	12:34:26	1	SST	CRTTstop2	tank.jpg	5000	690	0	0	48	605	10	60,5
100123	12:34:26	1	SST	CRTTstop	deer.jpg	5360,5	121	0	0	48	605	20	121
100123	12:34:26	1	SST	CRTTstop2	deer.jpg	5360,5	629	0	0	48	605	20	121
100123	12:34:26	1	SST	CRTTstop	tank.jpg	4921	424	0	0	48	605	70	423,5
100123	12:34:26	1	SST	CRTTstop2	tank.jpg	4921	62	32	1	47	605	70	423,5
100123	12:34:26	1	SST	CRTT	deer.jpg	4500	706	37	1	48	605	70	423,5
100123	12:34:26	1	SST	CRTTstop	tank.jpg	6000	484	0	0	48	605	80	484
100123	12:34:26	1	SST	CRTTstop2	tank.jpg	6000	232	32	1	47	605	80	484
100123	12:34:26	1	SST	CRTTstop	deer.jpg	6000	61	0	0	47	605	10	60,5
100123	12:34:26	1	SST	CRTTstop2	deer.jpg	6000	690	0	0	47	605	10	60,5
100123	12:34:26	1	SST	CRTT	tank.jpg	4360,5	667	32	1	48	605	10	60,5
100123	12:34:26	1	SST	CRTT	deer.jpg	4000	750	0	0	47	605	10	60,5
100123	12:34:26	1	SST	CRTT	tank.jpg	6000	627	32	1	48	605	10	60,5
100123	12:34:26	1	SST	CRTT	deer.jpg	4000	750	0	0	47	605	10	60,5
100123	12:34:26	1	SST	CRTTstop	deer.jpg	4000	424	0	0	47	605	70	423,5
100123	12:34:26	1	SST	CRTTstop2	deer.jpg	4000	327	0	0	47	605	70	423,5
100123	12:34:26	1	SST	CRTT	tank.jpg	5723,5	685	32	1	48	605	70	423,5
100123	12:34:26	1	SST	CRTT	tank.jpg	6000	697	32	1	49	605	70	423,5
100123	12:34:26	1	SST	CRTT	deer.jpg	4500	738	37	1	50	605	70	423,5
100123	12:34:26	1	SST	CRTT	deer.jpg	4000	750	0	0	49	605	70	423,5
100123	12:34:26	1	SST	CRTTstop	tank.jpg	4000	484	0	0	49	605	80	484
100123	12:34:26	1	SST	CRTTstop2	tank.jpg	4000	196	32	1	48	605	80	484
100123	12:34:26	1	SST	CRTT	tank.jpg	5000	669	32	1	49	605	80	484
100123	12:34:26	1	SST	CRTT	deer.jpg	6000	730	37	1	50	605	80	484
100123	12:34:26	1	SST	CRTTstop	tank.jpg	5000	121	0	0	50	605	20	121
100123	12:34:26	1	SST	CRTTstop2	tank.jpg	5000	629	0	0	50	605	20	121
100123	12:34:26	1	SST	CRTTstop	deer.jpg	3921	121	0	0	50	605	20	121
100123	12:34:26	1	SST	CRTTstop2	deer.jpg	3921	629	0	0	50	605	20	121
100123	12:34:26	1	SST	CRTT	tank.jpg	4421	672	32	1	51	605	20	121
100123	12:34:26	1	SST	CRTT	deer.jpg	4500	746	37	1	52	605	20	121
100123	12:34:26	1	SST	CRTTstop	deer.jpg	4500	484	0	0	52	605	80	484
100123	12:34:26	1	SST	CRTTstop2	deer.jpg	4500	266	0	0	52	605	80	484
100123	12:34:26	1	SST	CRTT	tank.jpg	4784	750	0	0	51	605	80	484
100123	12:34:26	1	SST	CRTT	deer.jpg	4000	750	0	0	50	605	80	484
100123	12:34:26	1	SST	CRTTstop	tank.jpg	5000	424	0	0	50	605	70	423,5
100123	12:34:26	1	SST	CRTTstop2	tank.jpg	5000	327	0	0	50	605	70	423,5
100123	12:34:26	1	SST	CRTT	deer.jpg	5223,5	750	0	0	49	605	70	423,5
100123	12:34:26	1	SST	CRTTstop	tank.jpg	5500	61	0	0	49	605	10	60,5
100123	12:34:26	1	SST	CRTTstop2	tank.jpg	5500	690	0	0	49	605	10	60,5
100123	12:34:26	1	SST	CRTTstop	deer.jpg	3360,5	61	0	0	49	605	10	60,5
100123	12:34:26	1	SST	CRTTstop2	deer.jpg	3360,5	690	0	0	49	605	10	60,5
100123	12:34:26	1	SST	CRTT	tank.jpg	4360,5	709	32	1	50	605	10	60,5
100123	12:34:26	1	SST	CRTT	deer.jpg	4000	714	37	1	51	605	10	60,5
100123	12:34:26	1	SST	CRTTstop	tank.jpg	4000	424	0	0	51	605	70	423,5
100123	12:34:26	1	SST	CRTTstop2	tank.jpg	4000	327	0	0	51	605	70	423,5
100123	12:34:26	1	SST	CRTTstop	deer.jpg	3723,5	484	0	0	51	605	80	484
100123	12:34:26	1	SST	CRTTstop2	deer.jpg	3723,5	217	37	1	50	605	80	484
100123	12:34:26	1	SST	CRTT	tank.jpg	4500	726	32	1	51	605	80	484
100123	12:34:26	1	SST	CRTTstop	tank.jpg	4500	121	0	0	51	605	20	121
100123	12:34:26	1	SST	CRTTstop2	tank.jpg	4500	629	0	0	51	605	20	121
100123	12:34:26	1	SST	CRTTstop	deer.jpg	4421	424	0	0	51	605	70	423,5
100123	12:34:26	1	SST	CRTTstop2	deer.jpg	4421	327	0	0	51	605	70	423,5
100123	12:34:26	1	SST	CRTTstop	tank.jpg	5223,5	61	0	0	51	605	10	60,5
100123	12:34:26	1	SST	CRTTstop2	tank.jpg	5223,5	690	0	0	51	605	10	60,5
100123	12:34:26	1	SST	CRTT	deer.jpg	4360,5	520	37	1	52	605	10	60,5
100123	12:34:26	1	SST	CRTT	tank.jpg	5000	676	32	1	53	605	10	60,5
100123	12:34:26	1	SST	CRTT	deer.jpg	5500	652	37	1	54	605	10	60,5
100123	12:34:26	1	SST	CRTT	deer.jpg	4000	750	0	0	53	605	10	60,5
100123	12:34:26	1	SST	CRTT	tank.jpg	5000	750	0	0	52	605	10	60,5
100123	12:34:26	1	SST	CRTT	tank.jpg	5000	750	0	0	51	605	10	60,5
100123	12:34:26	1	SST	CRTTstop	deer.jpg	4000	121	0	0	51	605	20	121
100123	12:34:26	1	SST	CRTTstop2	deer.jpg	4000	406	37	1	50	605	20	121
100123	12:34:26	1	SST	CRTT	deer.jpg	5000	734	37	1	51	605	20	121
