date	time	subject	blockcode	trialcode	picture.target.currentitem	values.stiminterval	latency	response	correct	values.score	values.AverageRTpractice	values.SSDcoeffitient	values.SSD
061423	13:37:15	1	Practice	CRTTpractice	tank.jpg	4500	750	0	0	-1	0	0	0
061423	13:37:15	1	Practice	CRTTpractice	deer.jpg	4500	637	37	1	0	0	0	0
061423	13:37:15	1	Practice	CRTTpractice	tank.jpg	6000	363	32	1	1	0	0	0
061423	13:37:15	1	Practice	CRTTpractice	deer.jpg	4500	385	37	1	2	0	0	0
061423	13:37:15	1	Practice	CRTTpractice	deer.jpg	5500	334	32	0	1	0	0	0
061423	13:37:15	1	Practice	CRTTpractice	tank.jpg	5500	653	32	1	2	0	0	0
061423	13:37:15	1	Practice	CRTTpractice	tank.jpg	6000	586	32	1	3	0	0	0
061423	13:37:15	1	Practice	CRTTpractice	deer.jpg	5000	539	37	1	4	0	0	0
061423	13:37:15	1	Practice	CRTTpractice	tank.jpg	5500	410	32	1	5	0	0	0
061423	13:37:15	1	Practice	CRTTpractice	deer.jpg	5000	354	37	1	6	0	0	0
061423	13:37:15	1	Practice	CRTTpractice	deer.jpg	6000	612	37	1	7	0	0	0
061423	13:37:15	1	Practice	CRTTpractice	tank.jpg	5000	508	32	1	8	0	0	0
061423	13:37:15	1	Practice	CRTTpractice	deer.jpg	5500	396	37	1	9	0	0	0
061423	13:37:15	1	Practice	CRTTpractice	tank.jpg	5500	449	32	1	10	0	0	0
061423	13:37:15	1	Practice	CRTTpractice	deer.jpg	4500	452	37	1	11	0	0	0
061423	13:37:15	1	Practice	CRTTpractice	tank.jpg	4500	503	32	1	12	0	0	0
061423	13:37:15	1	Practice	CRTTpractice	deer.jpg	5000	411	37	1	13	0	0	0
061423	13:37:15	1	Practice	CRTTpractice	tank.jpg	5500	447	32	1	14	0	0	0
061423	13:37:15	1	Practice	CRTTpractice	tank.jpg	5500	394	32	1	15	0	0	0
061423	13:37:15	1	Practice	CRTTpractice	deer.jpg	5500	351	37	1	16	0	0	0
061423	13:37:15	1	Practice	CRTTpractice	tank.jpg	6000	400	32	1	17	0	0	0
061423	13:37:15	1	Practice	CRTTpractice	deer.jpg	5500	396	37	1	18	0	0	0
061423	13:37:15	1	Practice	CRTTpractice	deer.jpg	4500	546	37	1	19	0	0	0
061423	13:37:15	1	Practice	CRTTpractice	tank.jpg	6000	468	32	1	20	0	0	0
061423	13:37:15	1	Practice	CRTTpractice	tank.jpg	5500	413	37	0	19	0	0	0
061423	13:37:15	1	Practice	CRTTpractice	deer.jpg	4000	574	37	1	20	0	0	0
061423	13:37:15	1	Practice	CRTTpractice	tank.jpg	6000	462	32	1	21	0	0	0
061423	13:37:15	1	Practice	CRTTpractice	deer.jpg	4500	617	37	1	22	0	0	0
061423	13:37:15	1	Practice	CRTTpractice	deer.jpg	4500	517	37	1	23	0	0	0
061423	13:37:15	1	Practice	CRTTpractice	tank.jpg	5000	569	32	1	24	0	0	0
061423	13:37:15	1	SST	CRTT	deer.jpg	4500	525	37	1	25	483	0	0
061423	13:37:15	1	SST	CRTT	tank.jpg	4500	541	32	1	26	483	0	0
061423	13:37:15	1	SST	CRTTstop	tank.jpg	5000	48	0	0	26	483	10	48,3000000000000042633
061423	13:37:15	1	SST	CRTTstop2	tank.jpg	5000	702	0	0	26	483	10	48,3000000000000042633
061423	13:37:15	1	SST	CRTT	deer.jpg	4348,3000000000001818989	486	37	1	27	483	10	48,3000000000000042633
061423	13:37:15	1	SST	CRTT	tank.jpg	5000	619	32	1	28	483	10	48,3000000000000042633
061423	13:37:15	1	SST	CRTTstop	deer.jpg	6000	386	0	0	28	483	80	386,4000000000000341061
061423	13:37:15	1	SST	CRTTstop2	deer.jpg	6000	169	37	1	27	483	80	386,4000000000000341061
061423	13:37:15	1	SST	CRTT	tank.jpg	5500	582	32	1	28	483	80	386,4000000000000341061
061423	13:37:15	1	SST	CRTTstop	deer.jpg	4000	97	0	0	28	483	20	96,6000000000000085265
061423	13:37:15	1	SST	CRTTstop2	deer.jpg	4000	653	0	0	28	483	20	96,6000000000000085265
061423	13:37:15	1	SST	CRTTstop	deer.jpg	3396,5999999999999090505	338	0	0	28	483	70	338,1000000000000227374
061423	13:37:15	1	SST	CRTTstop2	deer.jpg	3396,5999999999999090505	412	0	0	28	483	70	338,1000000000000227374
061423	13:37:15	1	SST	CRTT	tank.jpg	5638,1000000000003637979	566	32	1	29	483	70	338,1000000000000227374
061423	13:37:15	1	SST	CRTT	deer.jpg	6000	750	0	0	28	483	70	338,1000000000000227374
061423	13:37:15	1	SST	CRTT	tank.jpg	4500	470	32	1	29	483	70	338,1000000000000227374
061423	13:37:15	1	SST	CRTT	tank.jpg	5000	571	32	1	30	483	70	338,1000000000000227374
061423	13:37:15	1	SST	CRTT	deer.jpg	6000	484	37	1	31	483	70	338,1000000000000227374
061423	13:37:15	1	SST	CRTTstop	tank.jpg	5500	97	0	0	31	483	20	96,6000000000000085265
061423	13:37:15	1	SST	CRTTstop2	tank.jpg	5500	653	0	0	31	483	20	96,6000000000000085265
061423	13:37:15	1	SST	CRTTstop	deer.jpg	4396,6000000000003637979	338	0	0	31	483	70	338,1000000000000227374
061423	13:37:15	1	SST	CRTTstop2	deer.jpg	4396,6000000000003637979	241	37	1	30	483	70	338,1000000000000227374
061423	13:37:15	1	SST	CRTT	deer.jpg	5000	750	0	0	29	483	70	338,1000000000000227374
061423	13:37:15	1	SST	CRTT	tank.jpg	6000	650	32	1	30	483	70	338,1000000000000227374
061423	13:37:15	1	SST	CRTT	deer.jpg	5500	612	37	1	31	483	70	338,1000000000000227374
061423	13:37:15	1	SST	CRTTstop	tank.jpg	5500	48	0	0	31	483	10	48,3000000000000042633
061423	13:37:15	1	SST	CRTTstop2	tank.jpg	5500	702	0	0	31	483	10	48,3000000000000042633
061423	13:37:15	1	SST	CRTTstop	tank.jpg	4348,3000000000001818989	386	0	0	31	483	80	386,4000000000000341061
061423	13:37:15	1	SST	CRTTstop2	tank.jpg	4348,3000000000001818989	173	32	1	30	483	80	386,4000000000000341061
061423	13:37:15	1	SST	CRTT	deer.jpg	4000	750	0	0	29	483	80	386,4000000000000341061
061423	13:37:15	1	SST	CRTT	tank.jpg	4000	604	32	1	30	483	80	386,4000000000000341061
061423	13:37:15	1	SST	CRTT	deer.jpg	5500	455	37	1	31	483	80	386,4000000000000341061
061423	13:37:15	1	SST	CRTT	tank.jpg	4500	618	32	1	32	483	80	386,4000000000000341061
061423	13:37:15	1	SST	CRTT	deer.jpg	6000	577	37	1	33	483	80	386,4000000000000341061
061423	13:37:15	1	SST	CRTT	deer.jpg	5000	514	37	1	34	483	80	386,4000000000000341061
061423	13:37:15	1	SST	CRTT	tank.jpg	6000	526	32	1	35	483	80	386,4000000000000341061
061423	13:37:15	1	SST	CRTT	deer.jpg	4500	455	37	1	36	483	80	386,4000000000000341061
061423	13:37:15	1	SST	CRTT	tank.jpg	4500	529	32	1	37	483	80	386,4000000000000341061
061423	13:37:15	1	SST	CRTTstop	deer.jpg	4500	48	0	0	37	483	10	48,3000000000000042633
061423	13:37:15	1	SST	CRTTstop2	deer.jpg	4500	702	0	0	37	483	10	48,3000000000000042633
061423	13:37:15	1	SST	CRTT	tank.jpg	4848,3000000000001818989	539	32	1	38	483	10	48,3000000000000042633
061423	13:37:15	1	SST	CRTTstop	deer.jpg	4000	97	0	0	38	483	20	96,6000000000000085265
061423	13:37:15	1	SST	CRTTstop2	deer.jpg	4000	653	0	0	38	483	20	96,6000000000000085265
061423	13:37:15	1	SST	CRTT	tank.jpg	4896,6000000000003637979	534	32	1	39	483	20	96,6000000000000085265
061423	13:37:15	1	SST	CRTTstop	tank.jpg	4500	386	0	0	39	483	80	386,4000000000000341061
061423	13:37:15	1	SST	CRTTstop2	tank.jpg	4500	364	0	0	39	483	80	386,4000000000000341061
061423	13:37:15	1	SST	CRTTstop	deer.jpg	4186,3999999999996362021	338	0	0	39	483	70	338,1000000000000227374
061423	13:37:15	1	SST	CRTTstop2	deer.jpg	4186,3999999999996362021	235	37	1	38	483	70	338,1000000000000227374
061423	13:37:15	1	SST	CRTTstop	tank.jpg	5500	338	0	0	38	483	70	338,1000000000000227374
061423	13:37:15	1	SST	CRTTstop2	tank.jpg	5500	412	0	0	38	483	70	338,1000000000000227374
061423	13:37:15	1	SST	CRTTstop	deer.jpg	5638,1000000000003637979	386	0	0	38	483	80	386,4000000000000341061
061423	13:37:15	1	SST	CRTTstop2	deer.jpg	5638,1000000000003637979	364	0	0	38	483	80	386,4000000000000341061
061423	13:37:15	1	SST	CRTT	deer.jpg	5186,3999999999996362021	750	0	0	37	483	80	386,4000000000000341061
061423	13:37:15	1	SST	CRTT	tank.jpg	4000	614	32	1	38	483	80	386,4000000000000341061
061423	13:37:15	1	SST	CRTTstop	tank.jpg	6000	48	0	0	38	483	10	48,3000000000000042633
061423	13:37:15	1	SST	CRTTstop2	tank.jpg	6000	702	0	0	38	483	10	48,3000000000000042633
061423	13:37:15	1	SST	CRTT	deer.jpg	4848,3000000000001818989	694	37	1	39	483	10	48,3000000000000042633
061423	13:37:15	1	SST	CRTT	tank.jpg	4500	552	32	1	40	483	10	48,3000000000000042633
061423	13:37:15	1	SST	CRTTstop	deer.jpg	6000	97	0	0	40	483	20	96,6000000000000085265
061423	13:37:15	1	SST	CRTTstop2	deer.jpg	6000	653	0	0	40	483	20	96,6000000000000085265
061423	13:37:15	1	SST	CRTT	deer.jpg	4396,6000000000003637979	692	37	1	41	483	20	96,6000000000000085265
061423	13:37:15	1	SST	CRTTstop	tank.jpg	4500	338	0	0	41	483	70	338,1000000000000227374
061423	13:37:15	1	SST	CRTTstop2	tank.jpg	4500	183	32	1	40	483	70	338,1000000000000227374
061423	13:37:15	1	SST	CRTT	tank.jpg	5000	649	32	1	41	483	70	338,1000000000000227374
061423	13:37:15	1	SST	CRTT	deer.jpg	6000	647	37	1	42	483	70	338,1000000000000227374
061423	13:37:15	1	SST	CRTT	tank.jpg	5500	546	32	1	43	483	70	338,1000000000000227374
061423	13:37:15	1	SST	CRTT	deer.jpg	5500	528	37	1	44	483	70	338,1000000000000227374
061423	13:37:15	1	SST	CRTT	deer.jpg	6000	563	37	1	45	483	70	338,1000000000000227374
061423	13:37:15	1	SST	CRTTstop	tank.jpg	4000	48	0	0	45	483	10	48,3000000000000042633
061423	13:37:15	1	SST	CRTTstop2	tank.jpg	4000	702	0	0	45	483	10	48,3000000000000042633
061423	13:37:15	1	SST	CRTTstop	deer.jpg	4348,3000000000001818989	97	0	0	45	483	20	96,6000000000000085265
061423	13:37:15	1	SST	CRTTstop2	deer.jpg	4348,3000000000001818989	653	0	0	45	483	20	96,6000000000000085265
061423	13:37:15	1	SST	CRTTstop	tank.jpg	4396,6000000000003637979	386	0	0	45	483	80	386,4000000000000341061
061423	13:37:15	1	SST	CRTTstop2	tank.jpg	4396,6000000000003637979	135	32	1	44	483	80	386,4000000000000341061
061423	13:37:15	1	SST	CRTT	tank.jpg	4000	750	0	0	43	483	80	386,4000000000000341061
061423	13:37:15	1	SST	CRTT	deer.jpg	4000	750	0	0	42	483	80	386,4000000000000341061
061423	13:37:15	1	SST	CRTTstop	tank.jpg	6000	97	0	0	42	483	20	96,6000000000000085265
061423	13:37:15	1	SST	CRTTstop2	tank.jpg	6000	653	0	0	42	483	20	96,6000000000000085265
061423	13:37:15	1	SST	CRTT	deer.jpg	5396,6000000000003637979	570	37	1	43	483	20	96,6000000000000085265
061423	13:37:15	1	SST	CRTT	tank.jpg	5500	551	32	1	44	483	20	96,6000000000000085265
061423	13:37:15	1	SST	CRTT	deer.jpg	4500	646	37	1	45	483	20	96,6000000000000085265
061423	13:37:15	1	SST	CRTT	tank.jpg	5000	589	32	1	46	483	20	96,6000000000000085265
061423	13:37:15	1	SST	CRTTstop	deer.jpg	4000	386	0	0	46	483	80	386,4000000000000341061
061423	13:37:15	1	SST	CRTTstop2	deer.jpg	4000	207	37	1	45	483	80	386,4000000000000341061
061423	13:37:15	1	SST	CRTT	deer.jpg	6000	567	37	1	46	483	80	386,4000000000000341061
061423	13:37:15	1	SST	CRTTstop	tank.jpg	4000	48	0	0	46	483	10	48,3000000000000042633
061423	13:37:15	1	SST	CRTTstop2	tank.jpg	4000	702	0	0	46	483	10	48,3000000000000042633
061423	13:37:15	1	SST	CRTT	tank.jpg	4848,3000000000001818989	579	32	1	47	483	10	48,3000000000000042633
061423	13:37:15	1	SST	CRTT	deer.jpg	4500	585	37	1	48	483	10	48,3000000000000042633
061423	13:37:15	1	SST	CRTTstop	deer.jpg	4000	338	0	0	48	483	70	338,1000000000000227374
061423	13:37:15	1	SST	CRTTstop2	deer.jpg	4000	156	37	1	47	483	70	338,1000000000000227374
061423	13:37:15	1	SST	CRTTstop	tank.jpg	5000	97	0	0	47	483	20	96,6000000000000085265
061423	13:37:15	1	SST	CRTTstop2	tank.jpg	5000	653	0	0	47	483	20	96,6000000000000085265
061423	13:37:15	1	SST	CRTTstop	deer.jpg	4896,6000000000003637979	338	0	0	47	483	70	338,1000000000000227374
061423	13:37:15	1	SST	CRTTstop2	deer.jpg	4896,6000000000003637979	412	0	0	47	483	70	338,1000000000000227374
061423	13:37:15	1	SST	CRTT	tank.jpg	3638,0999999999999090505	625	32	1	48	483	70	338,1000000000000227374
061423	13:37:15	1	SST	CRTT	tank.jpg	4500	750	0	0	47	483	70	338,1000000000000227374
061423	13:37:15	1	SST	CRTTstop	deer.jpg	6000	386	0	0	47	483	80	386,4000000000000341061
061423	13:37:15	1	SST	CRTTstop2	deer.jpg	6000	6	37	1	46	483	80	386,4000000000000341061
061423	13:37:15	1	SST	CRTT	tank.jpg	5000	471	32	1	47	483	80	386,4000000000000341061
061423	13:37:15	1	SST	CRTT	deer.jpg	4500	409	37	1	48	483	80	386,4000000000000341061
061423	13:37:15	1	SST	CRTTstop	tank.jpg	6000	48	0	0	48	483	10	48,3000000000000042633
061423	13:37:15	1	SST	CRTTstop2	tank.jpg	6000	702	0	0	48	483	10	48,3000000000000042633
061423	13:37:15	1	SST	CRTT	deer.jpg	5348,3000000000001818989	437	37	1	49	483	10	48,3000000000000042633
061423	13:37:15	1	SST	CRTT	deer.jpg	6000	563	37	1	50	483	10	48,3000000000000042633
061423	13:37:15	1	SST	CRTT	tank.jpg	4500	594	32	1	51	483	10	48,3000000000000042633
061423	13:37:15	1	SST	CRTT	tank.jpg	5500	615	32	1	52	483	10	48,3000000000000042633
061423	13:37:15	1	SST	CRTT	deer.jpg	4000	496	37	1	53	483	10	48,3000000000000042633
061423	13:37:15	1	SST	CRTTstop	tank.jpg	5000	338	0	0	53	483	70	338,1000000000000227374
061423	13:37:15	1	SST	CRTTstop2	tank.jpg	5000	150	32	1	52	483	70	338,1000000000000227374
061423	13:37:15	1	SST	CRTT	deer.jpg	6000	432	37	1	53	483	70	338,1000000000000227374
061423	13:37:15	1	SST	CRTTstop	tank.jpg	6000	48	0	0	53	483	10	48,3000000000000042633
061423	13:37:15	1	SST	CRTTstop2	tank.jpg	6000	702	0	0	53	483	10	48,3000000000000042633
061423	13:37:15	1	SST	CRTTstop	deer.jpg	5348,3000000000001818989	386	0	0	53	483	80	386,4000000000000341061
061423	13:37:15	1	SST	CRTTstop2	deer.jpg	5348,3000000000001818989	154	37	1	52	483	80	386,4000000000000341061
061423	13:37:15	1	SST	CRTT	tank.jpg	5500	545	32	1	53	483	80	386,4000000000000341061
061423	13:37:15	1	SST	CRTT	deer.jpg	6000	483	37	1	54	483	80	386,4000000000000341061
061423	13:37:15	1	SST	CRTT	tank.jpg	5000	560	32	1	55	483	80	386,4000000000000341061
061423	13:37:15	1	SST	CRTT	deer.jpg	5500	446	37	1	56	483	80	386,4000000000000341061
061423	13:37:15	1	SST	CRTTstop	tank.jpg	6000	97	0	0	56	483	20	96,6000000000000085265
061423	13:37:15	1	SST	CRTTstop2	tank.jpg	6000	336	32	1	55	483	20	96,6000000000000085265
061423	13:37:15	1	SST	CRTT	deer.jpg	6000	530	37	1	56	483	20	96,6000000000000085265
061423	13:37:15	1	SST	CRTT	deer.jpg	4500	546	37	1	57	483	20	96,6000000000000085265
061423	13:37:15	1	SST	CRTTstop	tank.jpg	5000	97	0	0	57	483	20	96,6000000000000085265
061423	13:37:15	1	SST	CRTTstop2	tank.jpg	5000	653	0	0	57	483	20	96,6000000000000085265
061423	13:37:15	1	SST	CRTT	deer.jpg	3896,5999999999999090505	477	37	1	58	483	20	96,6000000000000085265
061423	13:37:15	1	SST	CRTT	tank.jpg	4500	559	32	1	59	483	20	96,6000000000000085265
061423	13:37:15	1	SST	CRTTstop	deer.jpg	5000	386	0	0	59	483	80	386,4000000000000341061
061423	13:37:15	1	SST	CRTTstop2	deer.jpg	5000	18	37	1	58	483	80	386,4000000000000341061
061423	13:37:15	1	SST	CRTT	tank.jpg	6000	473	32	1	59	483	80	386,4000000000000341061
