date	time	subject	blockcode	trialcode	picture.target.currentitem	values.stiminterval	latency	response	correct	values.score	values.AverageRTpractice	values.SSDcoeffitient	values.SSD
060523	17:52:39	1	Practice	CRTTpractice	tank.jpg	4000	750	0	0	-1	0	0	0
060523	17:52:39	1	Practice	CRTTpractice	deer.jpg	6000	750	0	0	-2	0	0	0
060523	17:52:39	1	Practice	CRTTpractice	tank.jpg	5000	698	32	1	-1	0	0	0
060523	17:52:39	1	Practice	CRTTpractice	deer.jpg	5500	442	32	0	-2	0	0	0
060523	17:52:39	1	Practice	CRTTpractice	tank.jpg	6000	750	0	0	-3	0	0	0
060523	17:52:39	1	Practice	CRTTpractice	deer.jpg	4500	727	37	1	-2	0	0	0
060523	17:52:39	1	Practice	CRTTpractice	tank.jpg	5500	750	0	0	-3	0	0	0
060523	17:52:39	1	Practice	CRTTpractice	deer.jpg	4000	633	37	1	-2	0	0	0
060523	17:52:39	1	Practice	CRTTpractice	tank.jpg	4500	700	32	1	-1	0	0	0
060523	17:52:39	1	Practice	CRTTpractice	deer.jpg	4500	629	37	1	0	0	0	0
060523	17:52:39	1	Practice	CRTTpractice	tank.jpg	4000	605	32	1	1	0	0	0
060523	17:52:39	1	Practice	CRTTpractice	deer.jpg	4500	706	37	1	2	0	0	0
060523	17:52:39	1	Practice	CRTTpractice	deer.jpg	5500	658	37	1	3	0	0	0
060523	17:52:39	1	Practice	CRTTpractice	tank.jpg	4500	725	32	1	4	0	0	0
060523	17:52:39	1	Practice	CRTTpractice	tank.jpg	5500	750	0	0	3	0	0	0
060523	17:52:39	1	Practice	CRTTpractice	deer.jpg	5500	634	37	1	4	0	0	0
060523	17:52:39	1	Practice	CRTTpractice	tank.jpg	5500	668	32	1	5	0	0	0
060523	17:52:39	1	Practice	CRTTpractice	deer.jpg	5500	621	37	1	6	0	0	0
060523	17:52:39	1	Practice	CRTTpractice	tank.jpg	5000	653	32	1	7	0	0	0
060523	17:52:39	1	Practice	CRTTpractice	deer.jpg	4000	652	37	1	8	0	0	0
060523	17:52:39	1	Practice	CRTTpractice	deer.jpg	4500	663	37	1	9	0	0	0
060523	17:52:39	1	Practice	CRTTpractice	tank.jpg	6000	700	32	1	10	0	0	0
060523	17:52:39	1	Practice	CRTTpractice	deer.jpg	4000	617	37	1	11	0	0	0
060523	17:52:39	1	Practice	CRTTpractice	tank.jpg	5500	661	32	1	12	0	0	0
060523	17:52:39	1	Practice	CRTTpractice	tank.jpg	5000	750	0	0	11	0	0	0
060523	17:52:39	1	Practice	CRTTpractice	deer.jpg	4500	642	37	1	12	0	0	0
060523	17:52:39	1	Practice	CRTTpractice	tank.jpg	4500	653	32	1	13	0	0	0
060523	17:52:39	1	Practice	CRTTpractice	deer.jpg	4000	660	37	1	14	0	0	0
060523	17:52:39	1	Practice	CRTTpractice	deer.jpg	4500	543	37	1	15	0	0	0
060523	17:52:39	1	Practice	CRTTpractice	tank.jpg	6000	750	0	0	14	0	0	0
060523	17:52:39	1	SST	CRTTstop	tank.jpg	4000	470	0	0	14	671	70	469,6999999999999886313
060523	17:52:39	1	SST	CRTTstop2	tank.jpg	4000	158	32	1	13	671	70	469,6999999999999886313
060523	17:52:39	1	SST	CRTT	deer.jpg	6000	647	37	1	14	671	70	469,6999999999999886313
060523	17:52:39	1	SST	CRTTstop	deer.jpg	5000	67	0	0	14	671	10	67,0999999999999943157
060523	17:52:39	1	SST	CRTTstop2	deer.jpg	5000	683	0	0	14	671	10	67,0999999999999943157
060523	17:52:39	1	SST	CRTTstop	tank.jpg	3367,0999999999999090505	537	0	0	14	671	80	536,7999999999999545253
060523	17:52:39	1	SST	CRTTstop2	tank.jpg	3367,0999999999999090505	213	0	0	14	671	80	536,7999999999999545253
060523	17:52:39	1	SST	CRTT	deer.jpg	4336,8000000000001818989	750	0	0	13	671	80	536,7999999999999545253
060523	17:52:39	1	SST	CRTT	tank.jpg	5000	685	32	1	14	671	80	536,7999999999999545253
060523	17:52:39	1	SST	CRTTstop	deer.jpg	5000	134	0	0	14	671	20	134,1999999999999886313
060523	17:52:39	1	SST	CRTTstop2	deer.jpg	5000	616	0	0	14	671	20	134,1999999999999886313
060523	17:52:39	1	SST	CRTT	tank.jpg	4434,1999999999998181011	750	0	0	13	671	20	134,1999999999999886313
060523	17:52:39	1	SST	CRTT	tank.jpg	4000	679	32	1	14	671	20	134,1999999999999886313
060523	17:52:39	1	SST	CRTT	deer.jpg	5000	701	37	1	15	671	20	134,1999999999999886313
060523	17:52:39	1	SST	CRTTstop	deer.jpg	5500	67	0	0	15	671	10	67,0999999999999943157
060523	17:52:39	1	SST	CRTTstop2	deer.jpg	5500	683	0	0	15	671	10	67,0999999999999943157
060523	17:52:39	1	SST	CRTT	tank.jpg	5367,1000000000003637979	656	32	1	16	671	10	67,0999999999999943157
060523	17:52:39	1	SST	CRTT	tank.jpg	5500	674	32	1	17	671	10	67,0999999999999943157
060523	17:52:39	1	SST	CRTT	deer.jpg	5000	711	37	1	18	671	10	67,0999999999999943157
060523	17:52:39	1	SST	CRTT	deer.jpg	5500	624	37	1	19	671	10	67,0999999999999943157
060523	17:52:39	1	SST	CRTT	tank.jpg	5000	607	32	1	20	671	10	67,0999999999999943157
060523	17:52:39	1	SST	CRTT	deer.jpg	6000	631	37	1	21	671	10	67,0999999999999943157
060523	17:52:39	1	SST	CRTTstop	tank.jpg	5000	134	0	0	21	671	20	134,1999999999999886313
060523	17:52:39	1	SST	CRTTstop2	tank.jpg	5000	616	0	0	21	671	20	134,1999999999999886313
060523	17:52:39	1	SST	CRTTstop	tank.jpg	4934,1999999999998181011	470	0	0	21	671	70	469,6999999999999886313
060523	17:52:39	1	SST	CRTTstop2	tank.jpg	4934,1999999999998181011	280	0	0	21	671	70	469,6999999999999886313
060523	17:52:39	1	SST	CRTT	deer.jpg	3769,6999999999998181011	750	0	0	20	671	70	469,6999999999999886313
060523	17:52:39	1	SST	CRTT	deer.jpg	4000	668	37	1	21	671	70	469,6999999999999886313
060523	17:52:39	1	SST	CRTTstop	tank.jpg	5500	537	0	0	21	671	80	536,7999999999999545253
060523	17:52:39	1	SST	CRTTstop2	tank.jpg	5500	143	32	1	20	671	80	536,7999999999999545253
060523	17:52:39	1	SST	CRTT	tank.jpg	5500	750	0	0	19	671	80	536,7999999999999545253
060523	17:52:39	1	SST	CRTT	deer.jpg	6000	663	37	1	20	671	80	536,7999999999999545253
060523	17:52:39	1	SST	CRTT	tank.jpg	6000	636	32	1	21	671	80	536,7999999999999545253
060523	17:52:39	1	SST	CRTTstop	deer.jpg	4000	134	0	0	21	671	20	134,1999999999999886313
060523	17:52:39	1	SST	CRTTstop2	deer.jpg	4000	616	0	0	21	671	20	134,1999999999999886313
060523	17:52:39	1	SST	CRTTstop	deer.jpg	3934,1999999999998181011	470	0	0	21	671	70	469,6999999999999886313
060523	17:52:39	1	SST	CRTTstop2	deer.jpg	3934,1999999999998181011	142	37	1	20	671	70	469,6999999999999886313
060523	17:52:39	1	SST	CRTT	tank.jpg	5500	750	0	0	19	671	70	469,6999999999999886313
060523	17:52:39	1	SST	CRTT	tank.jpg	6000	750	0	0	18	671	70	469,6999999999999886313
060523	17:52:39	1	SST	CRTT	deer.jpg	4000	690	37	1	19	671	70	469,6999999999999886313
060523	17:52:39	1	SST	CRTTstop	tank.jpg	5000	67	0	0	19	671	10	67,0999999999999943157
060523	17:52:39	1	SST	CRTTstop2	tank.jpg	5000	683	0	0	19	671	10	67,0999999999999943157
060523	17:52:39	1	SST	CRTTstop	deer.jpg	3367,0999999999999090505	537	0	0	19	671	80	536,7999999999999545253
060523	17:52:39	1	SST	CRTTstop2	deer.jpg	3367,0999999999999090505	134	37	1	18	671	80	536,7999999999999545253
060523	17:52:39	1	SST	CRTTstop	tank.jpg	4500	537	0	0	18	671	80	536,7999999999999545253
060523	17:52:39	1	SST	CRTTstop2	tank.jpg	4500	151	32	1	17	671	80	536,7999999999999545253
060523	17:52:39	1	SST	CRTT	deer.jpg	4500	750	0	0	16	671	80	536,7999999999999545253
060523	17:52:39	1	SST	CRTT	tank.jpg	4500	750	0	0	15	671	80	536,7999999999999545253
060523	17:52:39	1	SST	CRTT	deer.jpg	6000	631	37	1	16	671	80	536,7999999999999545253
060523	17:52:39	1	SST	CRTT	tank.jpg	6000	750	0	0	15	671	80	536,7999999999999545253
060523	17:52:39	1	SST	CRTTstop	deer.jpg	6000	134	0	0	15	671	20	134,1999999999999886313
060523	17:52:39	1	SST	CRTTstop2	deer.jpg	6000	616	0	0	15	671	20	134,1999999999999886313
060523	17:52:39	1	SST	CRTT	deer.jpg	4934,1999999999998181011	750	0	0	14	671	20	134,1999999999999886313
060523	17:52:39	1	SST	CRTT	tank.jpg	4500	750	0	0	13	671	20	134,1999999999999886313
060523	17:52:39	1	SST	CRTTstop	deer.jpg	5000	67	0	0	13	671	10	67,0999999999999943157
060523	17:52:39	1	SST	CRTTstop2	deer.jpg	5000	683	0	0	13	671	10	67,0999999999999943157
060523	17:52:39	1	SST	CRTTstop	tank.jpg	3367,0999999999999090505	470	0	0	13	671	70	469,6999999999999886313
060523	17:52:39	1	SST	CRTTstop2	tank.jpg	3367,0999999999999090505	280	0	0	13	671	70	469,6999999999999886313
060523	17:52:39	1	SST	CRTTstop	tank.jpg	5269,6999999999998181011	134	0	0	13	671	20	134,1999999999999886313
060523	17:52:39	1	SST	CRTTstop2	tank.jpg	5269,6999999999998181011	616	0	0	13	671	20	134,1999999999999886313
060523	17:52:39	1	SST	CRTT	deer.jpg	4434,1999999999998181011	750	0	0	12	671	20	134,1999999999999886313
060523	17:52:39	1	SST	CRTT	tank.jpg	4000	750	0	0	11	671	20	134,1999999999999886313
060523	17:52:39	1	SST	CRTTstop	deer.jpg	4500	470	0	0	11	671	70	469,6999999999999886313
060523	17:52:39	1	SST	CRTTstop2	deer.jpg	4500	187	37	1	10	671	70	469,6999999999999886313
060523	17:52:39	1	SST	CRTTstop	tank.jpg	5000	537	0	0	10	671	80	536,7999999999999545253
060523	17:52:39	1	SST	CRTTstop2	tank.jpg	5000	150	32	1	9	671	80	536,7999999999999545253
060523	17:52:39	1	SST	CRTT	deer.jpg	5000	705	37	1	10	671	80	536,7999999999999545253
060523	17:52:39	1	SST	CRTTstop	tank.jpg	5000	67	0	0	10	671	10	67,0999999999999943157
060523	17:52:39	1	SST	CRTTstop2	tank.jpg	5000	683	0	0	10	671	10	67,0999999999999943157
060523	17:52:39	1	SST	CRTTstop	deer.jpg	4867,1000000000003637979	537	0	0	10	671	80	536,7999999999999545253
060523	17:52:39	1	SST	CRTTstop2	deer.jpg	4867,1000000000003637979	191	37	1	9	671	80	536,7999999999999545253
060523	17:52:39	1	SST	CRTT	deer.jpg	4000	750	0	0	8	671	80	536,7999999999999545253
060523	17:52:39	1	SST	CRTT	tank.jpg	6000	750	0	0	7	671	80	536,7999999999999545253
060523	17:52:39	1	SST	CRTT	deer.jpg	4500	721	37	1	8	671	80	536,7999999999999545253
060523	17:52:39	1	SST	CRTT	tank.jpg	4000	702	32	1	9	671	80	536,7999999999999545253
060523	17:52:39	1	SST	CRTT	tank.jpg	4000	707	32	1	10	671	80	536,7999999999999545253
060523	17:52:39	1	SST	CRTT	deer.jpg	4500	700	37	1	11	671	80	536,7999999999999545253
060523	17:52:39	1	SST	CRTT	deer.jpg	6000	750	0	0	10	671	80	536,7999999999999545253
060523	17:52:39	1	SST	CRTT	tank.jpg	4000	634	37	0	9	671	80	536,7999999999999545253
060523	17:52:39	1	SST	CRTT	deer.jpg	4000	682	37	1	10	671	80	536,7999999999999545253
060523	17:52:39	1	SST	CRTT	tank.jpg	6000	646	32	1	11	671	80	536,7999999999999545253
060523	17:52:39	1	SST	CRTT	deer.jpg	6000	628	37	1	12	671	80	536,7999999999999545253
060523	17:52:39	1	SST	CRTT	tank.jpg	4500	673	32	1	13	671	80	536,7999999999999545253
060523	17:52:39	1	SST	CRTT	tank.jpg	4000	727	32	1	14	671	80	536,7999999999999545253
060523	17:52:39	1	SST	CRTTstop	deer.jpg	5000	470	0	0	14	671	70	469,6999999999999886313
060523	17:52:39	1	SST	CRTTstop2	deer.jpg	5000	174	37	1	13	671	70	469,6999999999999886313
060523	17:52:39	1	SST	CRTT	tank.jpg	5500	748	32	1	14	671	70	469,6999999999999886313
060523	17:52:39	1	SST	CRTT	deer.jpg	6000	638	37	1	15	671	70	469,6999999999999886313
060523	17:52:39	1	SST	CRTTstop	tank.jpg	5000	67	0	0	15	671	10	67,0999999999999943157
060523	17:52:39	1	SST	CRTTstop2	tank.jpg	5000	683	0	0	15	671	10	67,0999999999999943157
060523	17:52:39	1	SST	CRTT	deer.jpg	5367,1000000000003637979	720	37	1	16	671	10	67,0999999999999943157
060523	17:52:39	1	SST	CRTTstop	deer.jpg	5500	134	0	0	16	671	20	134,1999999999999886313
060523	17:52:39	1	SST	CRTTstop2	deer.jpg	5500	616	0	0	16	671	20	134,1999999999999886313
060523	17:52:39	1	SST	CRTTstop	tank.jpg	5434,1999999999998181011	134	0	0	16	671	20	134,1999999999999886313
060523	17:52:39	1	SST	CRTTstop2	tank.jpg	5434,1999999999998181011	616	0	0	16	671	20	134,1999999999999886313
060523	17:52:39	1	SST	CRTT	tank.jpg	4434,1999999999998181011	750	0	0	15	671	20	134,1999999999999886313
060523	17:52:39	1	SST	CRTTstop	deer.jpg	6000	470	0	0	15	671	70	469,6999999999999886313
060523	17:52:39	1	SST	CRTTstop2	deer.jpg	6000	168	37	1	14	671	70	469,6999999999999886313
060523	17:52:39	1	SST	CRTT	deer.jpg	6000	657	37	1	15	671	70	469,6999999999999886313
060523	17:52:39	1	SST	CRTT	tank.jpg	6000	719	32	1	16	671	70	469,6999999999999886313
060523	17:52:39	1	SST	CRTT	tank.jpg	5000	750	0	0	15	671	70	469,6999999999999886313
060523	17:52:39	1	SST	CRTT	deer.jpg	4500	553	32	0	14	671	70	469,6999999999999886313
060523	17:52:39	1	SST	CRTT	deer.jpg	5000	667	37	1	15	671	70	469,6999999999999886313
060523	17:52:39	1	SST	CRTTstop	tank.jpg	4500	537	0	0	15	671	80	536,7999999999999545253
060523	17:52:39	1	SST	CRTTstop2	tank.jpg	4500	213	0	0	15	671	80	536,7999999999999545253
060523	17:52:39	1	SST	CRTTstop	deer.jpg	5836,8000000000001818989	67	0	0	15	671	10	67,0999999999999943157
060523	17:52:39	1	SST	CRTTstop2	deer.jpg	5836,8000000000001818989	683	0	0	15	671	10	67,0999999999999943157
060523	17:52:39	1	SST	CRTT	tank.jpg	3867,0999999999999090505	750	0	0	14	671	10	67,0999999999999943157
060523	17:52:39	1	SST	CRTTstop	tank.jpg	4500	67	0	0	14	671	10	67,0999999999999943157
060523	17:52:39	1	SST	CRTTstop2	tank.jpg	4500	683	0	0	14	671	10	67,0999999999999943157
060523	17:52:39	1	SST	CRTT	deer.jpg	3367,0999999999999090505	604	37	1	15	671	10	67,0999999999999943157
060523	17:52:39	1	SST	CRTT	deer.jpg	4000	605	37	1	16	671	10	67,0999999999999943157
060523	17:52:39	1	SST	CRTT	tank.jpg	5000	750	0	0	15	671	10	67,0999999999999943157
060523	17:52:39	1	SST	CRTTstop	deer.jpg	4000	537	0	0	15	671	80	536,7999999999999545253
060523	17:52:39	1	SST	CRTTstop2	deer.jpg	4000	74	37	1	14	671	80	536,7999999999999545253
060523	17:52:39	1	SST	CRTT	tank.jpg	5000	681	32	1	15	671	80	536,7999999999999545253
060523	17:52:39	1	SST	CRTTstop	deer.jpg	6000	470	0	0	15	671	70	469,6999999999999886313
060523	17:52:39	1	SST	CRTTstop2	deer.jpg	6000	96	37	1	14	671	70	469,6999999999999886313
060523	17:52:39	1	SST	CRTT	tank.jpg	5000	677	32	1	15	671	70	469,6999999999999886313
060523	17:52:39	1	SST	CRTT	tank.jpg	4500	640	32	1	16	671	70	469,6999999999999886313
060523	17:52:39	1	SST	CRTTstop	deer.jpg	6000	134	0	0	16	671	20	134,1999999999999886313
060523	17:52:39	1	SST	CRTTstop2	deer.jpg	6000	616	0	0	16	671	20	134,1999999999999886313
060523	17:52:39	1	SST	CRTT	deer.jpg	3434,1999999999998181011	633	37	1	17	671	20	134,1999999999999886313
060523	17:52:39	1	SST	CRTT	tank.jpg	5500	643	32	1	18	671	20	134,1999999999999886313
060523	17:52:39	1	SST	CRTT	tank.jpg	4000	750	0	0	17	671	20	134,1999999999999886313
060523	17:52:39	1	SST	CRTT	deer.jpg	5500	641	37	1	18	671	20	134,1999999999999886313
060523	17:52:39	1	SST	CRTTstop	deer.jpg	5500	470	0	0	18	671	70	469,6999999999999886313
060523	17:52:39	1	SST	CRTTstop2	deer.jpg	5500	88	37	1	17	671	70	469,6999999999999886313
060523	17:52:39	1	SST	CRTT	tank.jpg	5000	750	0	0	16	671	70	469,6999999999999886313
060523	17:52:39	1	SST	CRTT	deer.jpg	4000	696	37	1	17	671	70	469,6999999999999886313
