date	time	subject	blockcode	trialcode	picture.target.currentitem	values.stiminterval	latency	response	correct	values.score	values.AverageRTpractice	values.SSDcoeffitient	values.SSD
092223	16:41:48	1	Practice	CRTTpractice	tank.jpg	4500	552	32	1	1	0	0	0
092223	16:41:48	1	Practice	CRTTpractice	deer.jpg	5000	627	37	1	2	0	0	0
092223	16:41:48	1	Practice	CRTTpractice	deer.jpg	5500	534	37	1	3	0	0	0
092223	16:41:48	1	Practice	CRTTpractice	tank.jpg	5500	396	32	1	4	0	0	0
092223	16:41:48	1	Practice	CRTTpractice	tank.jpg	4000	550	32	1	5	0	0	0
092223	16:41:48	1	Practice	CRTTpractice	deer.jpg	5500	476	37	1	6	0	0	0
092223	16:41:48	1	Practice	CRTTpractice	tank.jpg	6000	409	32	1	7	0	0	0
092223	16:41:48	1	Practice	CRTTpractice	deer.jpg	4000	642	37	1	8	0	0	0
092223	16:41:48	1	Practice	CRTTpractice	deer.jpg	5000	425	37	1	9	0	0	0
092223	16:41:48	1	Practice	CRTTpractice	tank.jpg	5500	413	32	1	10	0	0	0
092223	16:41:48	1	Practice	CRTTpractice	tank.jpg	5000	565	32	1	11	0	0	0
092223	16:41:48	1	Practice	CRTTpractice	deer.jpg	5500	379	37	1	12	0	0	0
092223	16:41:48	1	Practice	CRTTpractice	tank.jpg	4500	537	32	1	13	0	0	0
092223	16:41:48	1	Practice	CRTTpractice	deer.jpg	4000	581	37	1	14	0	0	0
092223	16:41:48	1	Practice	CRTTpractice	deer.jpg	4500	571	37	1	15	0	0	0
092223	16:41:48	1	Practice	CRTTpractice	tank.jpg	4000	485	32	1	16	0	0	0
092223	16:41:48	1	Practice	CRTTpractice	tank.jpg	4500	463	32	1	17	0	0	0
092223	16:41:48	1	Practice	CRTTpractice	deer.jpg	6000	645	37	1	18	0	0	0
092223	16:41:48	1	Practice	CRTTpractice	tank.jpg	4000	750	0	0	17	0	0	0
092223	16:41:48	1	Practice	CRTTpractice	deer.jpg	4500	563	37	1	18	0	0	0
092223	16:41:48	1	Practice	CRTTpractice	tank.jpg	4000	614	32	1	19	0	0	0
092223	16:41:48	1	Practice	CRTTpractice	deer.jpg	5500	410	37	1	20	0	0	0
092223	16:41:48	1	Practice	CRTTpractice	tank.jpg	5000	474	32	1	21	0	0	0
092223	16:41:48	1	Practice	CRTTpractice	deer.jpg	5000	472	32	0	20	0	0	0
092223	16:41:48	1	Practice	CRTTpractice	deer.jpg	5500	417	37	1	21	0	0	0
092223	16:41:48	1	Practice	CRTTpractice	tank.jpg	5500	580	32	1	22	0	0	0
092223	16:41:48	1	Practice	CRTTpractice	tank.jpg	4000	631	32	1	23	0	0	0
092223	16:41:48	1	Practice	CRTTpractice	deer.jpg	4500	466	37	1	24	0	0	0
092223	16:41:48	1	Practice	CRTTpractice	tank.jpg	4500	500	32	1	25	0	0	0
092223	16:41:48	1	Practice	CRTTpractice	deer.jpg	5500	524	37	1	26	0	0	0
092223	16:41:48	1	SST	CRTT	tank.jpg	4000	639	32	1	27	522	0	0
092223	16:41:48	1	SST	CRTTstop	deer.jpg	4500	52	0	0	27	522	10	52,2000000000000028422
092223	16:41:48	1	SST	CRTTstop2	deer.jpg	4500	698	0	0	27	522	10	52,2000000000000028422
092223	16:41:48	1	SST	CRTT	deer.jpg	3852,1999999999998181011	644	37	1	28	522	10	52,2000000000000028422
092223	16:41:48	1	SST	CRTT	tank.jpg	5500	607	32	1	29	522	10	52,2000000000000028422
092223	16:41:48	1	SST	CRTTstop	deer.jpg	5000	365	0	0	29	522	70	365,4000000000000341061
092223	16:41:48	1	SST	CRTTstop2	deer.jpg	5000	239	37	1	28	522	70	365,4000000000000341061
092223	16:41:48	1	SST	CRTT	tank.jpg	4000	750	0	0	27	522	70	365,4000000000000341061
092223	16:41:48	1	SST	CRTT	tank.jpg	6000	497	32	1	28	522	70	365,4000000000000341061
092223	16:41:48	1	SST	CRTT	deer.jpg	4500	674	37	1	29	522	70	365,4000000000000341061
092223	16:41:48	1	SST	CRTT	deer.jpg	5000	663	37	1	30	522	70	365,4000000000000341061
092223	16:41:48	1	SST	CRTT	tank.jpg	4000	598	32	1	31	522	70	365,4000000000000341061
092223	16:41:48	1	SST	CRTTstop	tank.jpg	5000	104	0	0	31	522	20	104,4000000000000056843
092223	16:41:48	1	SST	CRTTstop2	tank.jpg	5000	646	0	0	31	522	20	104,4000000000000056843
092223	16:41:48	1	SST	CRTT	deer.jpg	4404,3999999999996362021	513	37	1	32	522	20	104,4000000000000056843
092223	16:41:48	1	SST	CRTT	deer.jpg	4500	562	37	1	33	522	20	104,4000000000000056843
092223	16:41:48	1	SST	CRTTstop	tank.jpg	4000	418	0	0	33	522	80	417,6000000000000227374
092223	16:41:48	1	SST	CRTTstop2	tank.jpg	4000	187	32	1	32	522	80	417,6000000000000227374
092223	16:41:48	1	SST	CRTTstop	deer.jpg	5500	104	0	0	32	522	20	104,4000000000000056843
092223	16:41:48	1	SST	CRTTstop2	deer.jpg	5500	646	0	0	32	522	20	104,4000000000000056843
092223	16:41:48	1	SST	CRTT	tank.jpg	4404,3999999999996362021	500	32	1	33	522	20	104,4000000000000056843
092223	16:41:48	1	SST	CRTT	deer.jpg	6000	456	37	1	34	522	20	104,4000000000000056843
092223	16:41:48	1	SST	CRTTstop	tank.jpg	4500	365	0	0	34	522	70	365,4000000000000341061
092223	16:41:48	1	SST	CRTTstop2	tank.jpg	4500	267	32	1	33	522	70	365,4000000000000341061
092223	16:41:48	1	SST	CRTT	deer.jpg	4500	750	0	0	32	522	70	365,4000000000000341061
092223	16:41:48	1	SST	CRTTstop	tank.jpg	5000	418	0	0	32	522	80	417,6000000000000227374
092223	16:41:48	1	SST	CRTTstop2	tank.jpg	5000	332	0	0	32	522	80	417,6000000000000227374
092223	16:41:48	1	SST	CRTT	deer.jpg	4217,6000000000003637979	750	0	0	31	522	80	417,6000000000000227374
092223	16:41:48	1	SST	CRTT	tank.jpg	4500	585	32	1	32	522	80	417,6000000000000227374
092223	16:41:48	1	SST	CRTT	tank.jpg	4500	750	0	0	31	522	80	417,6000000000000227374
092223	16:41:48	1	SST	CRTTstop	deer.jpg	5000	52	0	0	31	522	10	52,2000000000000028422
092223	16:41:48	1	SST	CRTTstop2	deer.jpg	5000	698	0	0	31	522	10	52,2000000000000028422
092223	16:41:48	1	SST	CRTT	tank.jpg	3852,1999999999998181011	652	32	1	32	522	10	52,2000000000000028422
092223	16:41:48	1	SST	CRTT	deer.jpg	5000	578	37	1	33	522	10	52,2000000000000028422
092223	16:41:48	1	SST	CRTT	tank.jpg	4000	645	32	1	34	522	10	52,2000000000000028422
092223	16:41:48	1	SST	CRTTstop	deer.jpg	4000	418	0	0	34	522	80	417,6000000000000227374
092223	16:41:48	1	SST	CRTTstop2	deer.jpg	4000	267	37	1	33	522	80	417,6000000000000227374
092223	16:41:48	1	SST	CRTT	tank.jpg	4500	750	0	0	32	522	80	417,6000000000000227374
092223	16:41:48	1	SST	CRTT	deer.jpg	4500	708	37	1	33	522	80	417,6000000000000227374
092223	16:41:48	1	SST	CRTT	deer.jpg	5000	568	37	1	34	522	80	417,6000000000000227374
092223	16:41:48	1	SST	CRTT	tank.jpg	6000	641	32	1	35	522	80	417,6000000000000227374
092223	16:41:48	1	SST	CRTTstop	deer.jpg	4000	52	0	0	35	522	10	52,2000000000000028422
092223	16:41:48	1	SST	CRTTstop2	deer.jpg	4000	698	0	0	35	522	10	52,2000000000000028422
092223	16:41:48	1	SST	CRTTstop	tank.jpg	5352,1999999999998181011	104	0	0	35	522	20	104,4000000000000056843
092223	16:41:48	1	SST	CRTTstop2	tank.jpg	5352,1999999999998181011	646	0	0	35	522	20	104,4000000000000056843
092223	16:41:48	1	SST	CRTTstop	deer.jpg	4404,3999999999996362021	365	0	0	35	522	70	365,4000000000000341061
092223	16:41:48	1	SST	CRTTstop2	deer.jpg	4404,3999999999996362021	385	0	0	35	522	70	365,4000000000000341061
092223	16:41:48	1	SST	CRTTstop	tank.jpg	5665,3999999999996362021	52	0	0	35	522	10	52,2000000000000028422
092223	16:41:48	1	SST	CRTTstop2	tank.jpg	5665,3999999999996362021	698	0	0	35	522	10	52,2000000000000028422
092223	16:41:48	1	SST	CRTTstop	tank.jpg	4852,1999999999998181011	418	0	0	35	522	80	417,6000000000000227374
092223	16:41:48	1	SST	CRTTstop2	tank.jpg	4852,1999999999998181011	332	0	0	35	522	80	417,6000000000000227374
092223	16:41:48	1	SST	CRTT	deer.jpg	4217,6000000000003637979	750	0	0	34	522	80	417,6000000000000227374
092223	16:41:48	1	SST	CRTT	deer.jpg	4500	627	37	1	35	522	80	417,6000000000000227374
092223	16:41:48	1	SST	CRTT	tank.jpg	4500	672	32	1	36	522	80	417,6000000000000227374
092223	16:41:48	1	SST	CRTTstop	deer.jpg	4000	365	0	0	36	522	70	365,4000000000000341061
092223	16:41:48	1	SST	CRTTstop2	deer.jpg	4000	385	0	0	36	522	70	365,4000000000000341061
092223	16:41:48	1	SST	CRTT	tank.jpg	4665,3999999999996362021	719	32	1	37	522	70	365,4000000000000341061
092223	16:41:48	1	SST	CRTT	tank.jpg	4000	723	32	1	38	522	70	365,4000000000000341061
092223	16:41:48	1	SST	CRTTstop	deer.jpg	5500	104	0	0	38	522	20	104,4000000000000056843
092223	16:41:48	1	SST	CRTTstop2	deer.jpg	5500	646	0	0	38	522	20	104,4000000000000056843
092223	16:41:48	1	SST	CRTTstop	deer.jpg	4404,3999999999996362021	365	0	0	38	522	70	365,4000000000000341061
092223	16:41:48	1	SST	CRTTstop2	deer.jpg	4404,3999999999996362021	385	0	0	38	522	70	365,4000000000000341061
092223	16:41:48	1	SST	CRTT	tank.jpg	4165,3999999999996362021	739	32	1	39	522	70	365,4000000000000341061
092223	16:41:48	1	SST	CRTT	tank.jpg	5000	565	32	1	40	522	70	365,4000000000000341061
092223	16:41:48	1	SST	CRTTstop	deer.jpg	4500	52	0	0	40	522	10	52,2000000000000028422
092223	16:41:48	1	SST	CRTTstop2	deer.jpg	4500	698	0	0	40	522	10	52,2000000000000028422
092223	16:41:48	1	SST	CRTTstop	deer.jpg	5352,1999999999998181011	418	0	0	40	522	80	417,6000000000000227374
092223	16:41:48	1	SST	CRTTstop2	deer.jpg	5352,1999999999998181011	332	0	0	40	522	80	417,6000000000000227374
092223	16:41:48	1	SST	CRTT	tank.jpg	4717,6000000000003637979	711	32	1	41	522	80	417,6000000000000227374
092223	16:41:48	1	SST	CRTT	tank.jpg	5000	750	0	0	40	522	80	417,6000000000000227374
092223	16:41:48	1	SST	CRTT	deer.jpg	4000	670	37	1	41	522	80	417,6000000000000227374
092223	16:41:48	1	SST	CRTT	tank.jpg	5000	500	32	1	42	522	80	417,6000000000000227374
092223	16:41:48	1	SST	CRTTstop	deer.jpg	4500	104	0	0	42	522	20	104,4000000000000056843
092223	16:41:48	1	SST	CRTTstop2	deer.jpg	4500	646	0	0	42	522	20	104,4000000000000056843
092223	16:41:48	1	SST	CRTT	deer.jpg	4404,3999999999996362021	520	37	1	43	522	20	104,4000000000000056843
092223	16:41:48	1	SST	CRTT	tank.jpg	4500	569	32	1	44	522	20	104,4000000000000056843
092223	16:41:48	1	SST	CRTT	deer.jpg	6000	506	37	1	45	522	20	104,4000000000000056843
092223	16:41:48	1	SST	CRTT	tank.jpg	5000	510	32	1	46	522	20	104,4000000000000056843
092223	16:41:48	1	SST	CRTTstop	deer.jpg	6000	104	0	0	46	522	20	104,4000000000000056843
092223	16:41:48	1	SST	CRTTstop2	deer.jpg	6000	646	0	0	46	522	20	104,4000000000000056843
092223	16:41:48	1	SST	CRTT	tank.jpg	4904,3999999999996362021	440	32	1	47	522	20	104,4000000000000056843
092223	16:41:48	1	SST	CRTT	deer.jpg	5000	688	37	1	48	522	20	104,4000000000000056843
092223	16:41:48	1	SST	CRTT	tank.jpg	5000	484	32	1	49	522	20	104,4000000000000056843
092223	16:41:48	1	SST	CRTT	deer.jpg	5500	405	37	1	50	522	20	104,4000000000000056843
092223	16:41:48	1	SST	CRTT	tank.jpg	4000	542	32	1	51	522	20	104,4000000000000056843
092223	16:41:48	1	SST	CRTTstop	deer.jpg	5000	52	0	0	51	522	10	52,2000000000000028422
092223	16:41:48	1	SST	CRTTstop2	deer.jpg	5000	698	0	0	51	522	10	52,2000000000000028422
092223	16:41:48	1	SST	CRTT	tank.jpg	4352,1999999999998181011	463	32	1	52	522	10	52,2000000000000028422
092223	16:41:48	1	SST	CRTTstop	tank.jpg	4500	418	0	0	52	522	80	417,6000000000000227374
092223	16:41:48	1	SST	CRTTstop2	tank.jpg	4500	332	0	0	52	522	80	417,6000000000000227374
092223	16:41:48	1	SST	CRTT	deer.jpg	4717,6000000000003637979	601	37	1	53	522	80	417,6000000000000227374
092223	16:41:48	1	SST	CRTTstop	deer.jpg	6000	365	0	0	53	522	70	365,4000000000000341061
092223	16:41:48	1	SST	CRTTstop2	deer.jpg	6000	225	37	1	52	522	70	365,4000000000000341061
092223	16:41:48	1	SST	CRTT	tank.jpg	4000	650	32	1	53	522	70	365,4000000000000341061
092223	16:41:48	1	SST	CRTTstop	deer.jpg	5500	365	0	0	53	522	70	365,4000000000000341061
092223	16:41:48	1	SST	CRTTstop2	deer.jpg	5500	101	37	1	52	522	70	365,4000000000000341061
092223	16:41:48	1	SST	CRTTstop	tank.jpg	5500	418	0	0	52	522	80	417,6000000000000227374
092223	16:41:48	1	SST	CRTTstop2	tank.jpg	5500	332	0	0	52	522	80	417,6000000000000227374
092223	16:41:48	1	SST	CRTT	deer.jpg	5717,6000000000003637979	643	37	1	53	522	80	417,6000000000000227374
092223	16:41:48	1	SST	CRTT	tank.jpg	5500	693	32	1	54	522	80	417,6000000000000227374
092223	16:41:48	1	SST	CRTT	tank.jpg	6000	497	32	1	55	522	80	417,6000000000000227374
092223	16:41:48	1	SST	CRTT	deer.jpg	5000	502	32	0	54	522	80	417,6000000000000227374
092223	16:41:48	1	SST	CRTT	deer.jpg	4000	571	37	1	55	522	80	417,6000000000000227374
092223	16:41:48	1	SST	CRTT	tank.jpg	4000	494	32	1	56	522	80	417,6000000000000227374
092223	16:41:48	1	SST	CRTTstop	deer.jpg	5500	52	0	0	56	522	10	52,2000000000000028422
092223	16:41:48	1	SST	CRTTstop2	deer.jpg	5500	698	0	0	56	522	10	52,2000000000000028422
092223	16:41:48	1	SST	CRTTstop	tank.jpg	4852,1999999999998181011	104	0	0	56	522	20	104,4000000000000056843
092223	16:41:48	1	SST	CRTTstop2	tank.jpg	4852,1999999999998181011	646	0	0	56	522	20	104,4000000000000056843
092223	16:41:48	1	SST	CRTTstop	deer.jpg	5404,3999999999996362021	52	0	0	56	522	10	52,2000000000000028422
092223	16:41:48	1	SST	CRTTstop2	deer.jpg	5404,3999999999996362021	698	0	0	56	522	10	52,2000000000000028422
092223	16:41:48	1	SST	CRTTstop	tank.jpg	3352,1999999999998181011	418	0	0	56	522	80	417,6000000000000227374
092223	16:41:48	1	SST	CRTTstop2	tank.jpg	3352,1999999999998181011	332	0	0	56	522	80	417,6000000000000227374
092223	16:41:48	1	SST	CRTT	deer.jpg	3717,5999999999999090505	456	37	1	57	522	80	417,6000000000000227374
092223	16:41:48	1	SST	CRTT	tank.jpg	4000	432	32	1	58	522	80	417,6000000000000227374
092223	16:41:48	1	SST	CRTTstop	tank.jpg	5000	104	0	0	58	522	20	104,4000000000000056843
092223	16:41:48	1	SST	CRTTstop2	tank.jpg	5000	646	0	0	58	522	20	104,4000000000000056843
092223	16:41:48	1	SST	CRTT	deer.jpg	5404,3999999999996362021	465	37	1	59	522	20	104,4000000000000056843
092223	16:41:48	1	SST	CRTT	tank.jpg	6000	550	32	1	60	522	20	104,4000000000000056843
092223	16:41:48	1	SST	CRTTstop	deer.jpg	4000	365	0	0	60	522	70	365,4000000000000341061
092223	16:41:48	1	SST	CRTTstop2	deer.jpg	4000	202	37	1	59	522	70	365,4000000000000341061
092223	16:41:48	1	SST	CRTTstop	deer.jpg	4500	418	0	0	59	522	80	417,6000000000000227374
092223	16:41:48	1	SST	CRTTstop2	deer.jpg	4500	221	37	1	58	522	80	417,6000000000000227374
092223	16:41:48	1	SST	CRTT	tank.jpg	4500	682	32	1	59	522	80	417,6000000000000227374
092223	16:41:48	1	SST	CRTT	deer.jpg	5000	511	37	1	60	522	80	417,6000000000000227374
092223	16:41:48	1	SST	CRTT	tank.jpg	5500	567	32	1	61	522	80	417,6000000000000227374
092223	16:41:48	1	SST	CRTT	tank.jpg	5500	652	32	1	62	522	80	417,6000000000000227374
092223	16:41:48	1	SST	CRTTstop	deer.jpg	4500	52	0	0	62	522	10	52,2000000000000028422
092223	16:41:48	1	SST	CRTTstop2	deer.jpg	4500	698	0	0	62	522	10	52,2000000000000028422
092223	16:41:48	1	SST	CRTT	deer.jpg	5352,1999999999998181011	644	37	1	63	522	10	52,2000000000000028422
092223	16:41:48	1	SST	CRTT	tank.jpg	4000	644	32	1	64	522	10	52,2000000000000028422
