date	time	subject	blockcode	trialcode	picture.target.currentitem	values.stiminterval	latency	response	correct	values.score	values.AverageRTpractice	values.SSDcoeffitient	values.SSD
070423	13:27:27	1	Practice	CRTTpractice	deer.jpg	5000	750	0	0	-1	0	0	0
070423	13:27:27	1	Practice	CRTTpractice	tank.jpg	4000	588	32	1	0	0	0	0
070423	13:27:27	1	Practice	CRTTpractice	tank.jpg	5000	726	32	1	1	0	0	0
070423	13:27:27	1	Practice	CRTTpractice	deer.jpg	4500	446	37	1	2	0	0	0
070423	13:27:27	1	Practice	CRTTpractice	tank.jpg	5500	368	32	1	3	0	0	0
070423	13:27:27	1	Practice	CRTTpractice	deer.jpg	5500	406	37	1	4	0	0	0
070423	13:27:27	1	Practice	CRTTpractice	tank.jpg	4000	479	32	1	5	0	0	0
070423	13:27:27	1	Practice	CRTTpractice	deer.jpg	4500	385	37	1	6	0	0	0
070423	13:27:27	1	Practice	CRTTpractice	deer.jpg	4500	423	32	0	5	0	0	0
070423	13:27:27	1	Practice	CRTTpractice	tank.jpg	5000	591	32	1	6	0	0	0
070423	13:27:27	1	Practice	CRTTpractice	tank.jpg	4000	441	37	0	5	0	0	0
070423	13:27:27	1	Practice	CRTTpractice	deer.jpg	6000	631	37	1	6	0	0	0
070423	13:27:27	1	Practice	CRTTpractice	tank.jpg	5500	578	32	1	7	0	0	0
070423	13:27:27	1	Practice	CRTTpractice	deer.jpg	4500	600	37	1	8	0	0	0
070423	13:27:27	1	Practice	CRTTpractice	deer.jpg	5500	612	37	1	9	0	0	0
070423	13:27:27	1	Practice	CRTTpractice	tank.jpg	4000	565	32	1	10	0	0	0
070423	13:27:27	1	Practice	CRTTpractice	deer.jpg	5500	635	37	1	11	0	0	0
070423	13:27:27	1	Practice	CRTTpractice	tank.jpg	4000	571	32	1	12	0	0	0
070423	13:27:27	1	Practice	CRTTpractice	deer.jpg	4500	537	37	1	13	0	0	0
070423	13:27:27	1	Practice	CRTTpractice	tank.jpg	4000	405	32	1	14	0	0	0
070423	13:27:27	1	Practice	CRTTpractice	tank.jpg	4000	582	32	1	15	0	0	0
070423	13:27:27	1	Practice	CRTTpractice	deer.jpg	5000	511	32	0	14	0	0	0
070423	13:27:27	1	Practice	CRTTpractice	tank.jpg	4500	649	32	1	15	0	0	0
070423	13:27:27	1	Practice	CRTTpractice	deer.jpg	4500	547	37	1	16	0	0	0
070423	13:27:27	1	Practice	CRTTpractice	tank.jpg	6000	541	32	1	17	0	0	0
070423	13:27:27	1	Practice	CRTTpractice	deer.jpg	5500	612	37	1	18	0	0	0
070423	13:27:27	1	Practice	CRTTpractice	tank.jpg	5500	575	32	1	19	0	0	0
070423	13:27:27	1	Practice	CRTTpractice	deer.jpg	4000	635	37	1	20	0	0	0
070423	13:27:27	1	Practice	CRTTpractice	deer.jpg	4000	610	37	1	21	0	0	0
070423	13:27:27	1	Practice	CRTTpractice	tank.jpg	6000	562	32	1	22	0	0	0
070423	13:27:27	1	SST	CRTTstop	deer.jpg	4500	442	0	0	22	552	80	441,6000000000000227374
070423	13:27:27	1	SST	CRTTstop2	deer.jpg	4500	267	37	1	21	552	80	441,6000000000000227374
070423	13:27:27	1	SST	CRTT	tank.jpg	5500	660	32	1	22	552	80	441,6000000000000227374
070423	13:27:27	1	SST	CRTT	tank.jpg	6000	609	32	1	23	552	80	441,6000000000000227374
070423	13:27:27	1	SST	CRTT	deer.jpg	6000	601	37	1	24	552	80	441,6000000000000227374
070423	13:27:27	1	SST	CRTTstop	deer.jpg	6000	386	0	0	24	552	70	386,4000000000000341061
070423	13:27:27	1	SST	CRTTstop2	deer.jpg	6000	192	37	1	23	552	70	386,4000000000000341061
070423	13:27:27	1	SST	CRTTstop	tank.jpg	4500	55	0	0	23	552	10	55,2000000000000028422
070423	13:27:27	1	SST	CRTTstop2	tank.jpg	4500	695	0	0	23	552	10	55,2000000000000028422
070423	13:27:27	1	SST	CRTTstop	deer.jpg	3855,1999999999998181011	110	0	0	23	552	20	110,4000000000000056843
070423	13:27:27	1	SST	CRTTstop2	deer.jpg	3855,1999999999998181011	640	0	0	23	552	20	110,4000000000000056843
070423	13:27:27	1	SST	CRTTstop	tank.jpg	3410,4000000000000909495	442	0	0	23	552	80	441,6000000000000227374
070423	13:27:27	1	SST	CRTTstop2	tank.jpg	3410,4000000000000909495	233	32	1	22	552	80	441,6000000000000227374
070423	13:27:27	1	SST	CRTT	tank.jpg	5500	750	0	0	21	552	80	441,6000000000000227374
070423	13:27:27	1	SST	CRTT	deer.jpg	4500	619	37	1	22	552	80	441,6000000000000227374
070423	13:27:27	1	SST	CRTT	deer.jpg	4000	750	0	0	21	552	80	441,6000000000000227374
070423	13:27:27	1	SST	CRTT	tank.jpg	5500	633	32	1	22	552	80	441,6000000000000227374
070423	13:27:27	1	SST	CRTT	tank.jpg	4000	649	32	1	23	552	80	441,6000000000000227374
070423	13:27:27	1	SST	CRTT	deer.jpg	5500	627	37	1	24	552	80	441,6000000000000227374
070423	13:27:27	1	SST	CRTTstop	tank.jpg	4000	110	0	0	24	552	20	110,4000000000000056843
070423	13:27:27	1	SST	CRTTstop2	tank.jpg	4000	640	0	0	24	552	20	110,4000000000000056843
070423	13:27:27	1	SST	CRTTstop	deer.jpg	5410,3999999999996362021	386	0	0	24	552	70	386,4000000000000341061
070423	13:27:27	1	SST	CRTTstop2	deer.jpg	5410,3999999999996362021	293	37	1	23	552	70	386,4000000000000341061
070423	13:27:27	1	SST	CRTT	deer.jpg	5500	750	0	0	22	552	70	386,4000000000000341061
070423	13:27:27	1	SST	CRTT	tank.jpg	5000	750	0	0	21	552	70	386,4000000000000341061
070423	13:27:27	1	SST	CRTT	deer.jpg	5000	659	37	1	22	552	70	386,4000000000000341061
070423	13:27:27	1	SST	CRTT	tank.jpg	5500	693	32	1	23	552	70	386,4000000000000341061
070423	13:27:27	1	SST	CRTT	deer.jpg	5000	594	37	1	24	552	70	386,4000000000000341061
070423	13:27:27	1	SST	CRTTstop	tank.jpg	6000	55	0	0	24	552	10	55,2000000000000028422
070423	13:27:27	1	SST	CRTTstop2	tank.jpg	6000	695	0	0	24	552	10	55,2000000000000028422
070423	13:27:27	1	SST	CRTTstop	deer.jpg	4855,1999999999998181011	110	0	0	24	552	20	110,4000000000000056843
070423	13:27:27	1	SST	CRTTstop2	deer.jpg	4855,1999999999998181011	640	0	0	24	552	20	110,4000000000000056843
070423	13:27:27	1	SST	CRTT	tank.jpg	5410,3999999999996362021	750	0	0	23	552	20	110,4000000000000056843
070423	13:27:27	1	SST	CRTT	tank.jpg	5000	615	32	1	24	552	20	110,4000000000000056843
070423	13:27:27	1	SST	CRTT	deer.jpg	5500	650	37	1	25	552	20	110,4000000000000056843
070423	13:27:27	1	SST	CRTTstop	deer.jpg	4000	386	0	0	25	552	70	386,4000000000000341061
070423	13:27:27	1	SST	CRTTstop2	deer.jpg	4000	364	0	0	25	552	70	386,4000000000000341061
070423	13:27:27	1	SST	CRTT	tank.jpg	3686,4000000000000909495	563	32	1	26	552	70	386,4000000000000341061
070423	13:27:27	1	SST	CRTTstop	deer.jpg	4500	55	0	0	26	552	10	55,2000000000000028422
070423	13:27:27	1	SST	CRTTstop2	deer.jpg	4500	695	0	0	26	552	10	55,2000000000000028422
070423	13:27:27	1	SST	CRTTstop	tank.jpg	5355,1999999999998181011	442	0	0	26	552	80	441,6000000000000227374
070423	13:27:27	1	SST	CRTTstop2	tank.jpg	5355,1999999999998181011	100	32	1	25	552	80	441,6000000000000227374
070423	13:27:27	1	SST	CRTTstop	deer.jpg	5500	442	0	0	25	552	80	441,6000000000000227374
070423	13:27:27	1	SST	CRTTstop2	deer.jpg	5500	308	0	0	25	552	80	441,6000000000000227374
070423	13:27:27	1	SST	CRTT	tank.jpg	5241,6000000000003637979	686	32	1	26	552	80	441,6000000000000227374
070423	13:27:27	1	SST	CRTT	tank.jpg	6000	689	32	1	27	552	80	441,6000000000000227374
070423	13:27:27	1	SST	CRTT	deer.jpg	4500	723	37	1	28	552	80	441,6000000000000227374
070423	13:27:27	1	SST	CRTT	tank.jpg	5500	538	32	1	29	552	80	441,6000000000000227374
070423	13:27:27	1	SST	CRTT	deer.jpg	6000	596	37	1	30	552	80	441,6000000000000227374
070423	13:27:27	1	SST	CRTT	tank.jpg	5000	637	32	1	31	552	80	441,6000000000000227374
070423	13:27:27	1	SST	CRTTstop	deer.jpg	5500	386	0	0	31	552	70	386,4000000000000341061
070423	13:27:27	1	SST	CRTTstop2	deer.jpg	5500	364	0	0	31	552	70	386,4000000000000341061
070423	13:27:27	1	SST	CRTT	tank.jpg	4186,3999999999996362021	750	0	0	30	552	70	386,4000000000000341061
070423	13:27:27	1	SST	CRTT	deer.jpg	6000	750	0	0	29	552	70	386,4000000000000341061
070423	13:27:27	1	SST	CRTT	deer.jpg	5500	750	0	0	28	552	70	386,4000000000000341061
070423	13:27:27	1	SST	CRTT	tank.jpg	4000	750	0	0	27	552	70	386,4000000000000341061
070423	13:27:27	1	SST	CRTT	tank.jpg	5000	744	32	1	28	552	70	386,4000000000000341061
070423	13:27:27	1	SST	CRTT	deer.jpg	5500	671	37	1	29	552	70	386,4000000000000341061
070423	13:27:27	1	SST	CRTT	deer.jpg	4000	629	37	1	30	552	70	386,4000000000000341061
070423	13:27:27	1	SST	CRTT	tank.jpg	4500	505	32	1	31	552	70	386,4000000000000341061
070423	13:27:27	1	SST	CRTT	tank.jpg	5000	486	32	1	32	552	70	386,4000000000000341061
070423	13:27:27	1	SST	CRTTstop	deer.jpg	4000	55	0	0	32	552	10	55,2000000000000028422
070423	13:27:27	1	SST	CRTTstop2	deer.jpg	4000	695	0	0	32	552	10	55,2000000000000028422
070423	13:27:27	1	SST	CRTT	deer.jpg	5355,1999999999998181011	489	37	1	33	552	10	55,2000000000000028422
070423	13:27:27	1	SST	CRTTstop	tank.jpg	5500	110	0	0	33	552	20	110,4000000000000056843
070423	13:27:27	1	SST	CRTTstop2	tank.jpg	5500	640	0	0	33	552	20	110,4000000000000056843
070423	13:27:27	1	SST	CRTTstop	deer.jpg	4910,3999999999996362021	386	0	0	33	552	70	386,4000000000000341061
070423	13:27:27	1	SST	CRTTstop2	deer.jpg	4910,3999999999996362021	364	0	0	33	552	70	386,4000000000000341061
070423	13:27:27	1	SST	CRTTstop	tank.jpg	4186,3999999999996362021	55	0	0	33	552	10	55,2000000000000028422
070423	13:27:27	1	SST	CRTTstop2	tank.jpg	4186,3999999999996362021	695	0	0	33	552	10	55,2000000000000028422
070423	13:27:27	1	SST	CRTT	tank.jpg	3355,1999999999998181011	750	0	0	32	552	10	55,2000000000000028422
070423	13:27:27	1	SST	CRTTstop	deer.jpg	4000	110	0	0	32	552	20	110,4000000000000056843
070423	13:27:27	1	SST	CRTTstop2	deer.jpg	4000	640	0	0	32	552	20	110,4000000000000056843
070423	13:27:27	1	SST	CRTT	tank.jpg	4910,3999999999996362021	468	32	1	33	552	20	110,4000000000000056843
070423	13:27:27	1	SST	CRTTstop	deer.jpg	5000	442	0	0	33	552	80	441,6000000000000227374
070423	13:27:27	1	SST	CRTTstop2	deer.jpg	5000	167	37	1	32	552	80	441,6000000000000227374
070423	13:27:27	1	SST	CRTT	deer.jpg	4500	726	37	1	33	552	80	441,6000000000000227374
070423	13:27:27	1	SST	CRTTstop	tank.jpg	4000	442	0	0	33	552	80	441,6000000000000227374
070423	13:27:27	1	SST	CRTTstop2	tank.jpg	4000	112	32	1	32	552	80	441,6000000000000227374
070423	13:27:27	1	SST	CRTT	tank.jpg	4000	638	32	1	33	552	80	441,6000000000000227374
070423	13:27:27	1	SST	CRTT	deer.jpg	4500	553	37	1	34	552	80	441,6000000000000227374
070423	13:27:27	1	SST	CRTT	tank.jpg	6000	546	32	1	35	552	80	441,6000000000000227374
070423	13:27:27	1	SST	CRTT	deer.jpg	5000	622	37	1	36	552	80	441,6000000000000227374
070423	13:27:27	1	SST	CRTTstop	deer.jpg	5500	386	0	0	36	552	70	386,4000000000000341061
070423	13:27:27	1	SST	CRTTstop2	deer.jpg	5500	128	37	1	35	552	70	386,4000000000000341061
070423	13:27:27	1	SST	CRTTstop	tank.jpg	6000	55	0	0	35	552	10	55,2000000000000028422
070423	13:27:27	1	SST	CRTTstop2	tank.jpg	6000	695	0	0	35	552	10	55,2000000000000028422
070423	13:27:27	1	SST	CRTT	deer.jpg	5355,1999999999998181011	504	37	1	36	552	10	55,2000000000000028422
070423	13:27:27	1	SST	CRTTstop	tank.jpg	4000	110	0	0	36	552	20	110,4000000000000056843
070423	13:27:27	1	SST	CRTTstop2	tank.jpg	4000	640	0	0	36	552	20	110,4000000000000056843
070423	13:27:27	1	SST	CRTT	tank.jpg	3910,4000000000000909495	750	0	0	35	552	20	110,4000000000000056843
070423	13:27:27	1	SST	CRTT	deer.jpg	6000	606	37	1	36	552	20	110,4000000000000056843
070423	13:27:27	1	SST	CRTT	tank.jpg	5000	487	32	1	37	552	20	110,4000000000000056843
070423	13:27:27	1	SST	CRTT	deer.jpg	4500	648	37	1	38	552	20	110,4000000000000056843
070423	13:27:27	1	SST	CRTTstop	deer.jpg	5000	386	0	0	38	552	70	386,4000000000000341061
070423	13:27:27	1	SST	CRTTstop2	deer.jpg	5000	30	32	1	37	552	70	386,4000000000000341061
070423	13:27:27	1	SST	CRTTstop	tank.jpg	5000	110	0	0	37	552	20	110,4000000000000056843
070423	13:27:27	1	SST	CRTTstop2	tank.jpg	5000	640	0	0	37	552	20	110,4000000000000056843
070423	13:27:27	1	SST	CRTT	tank.jpg	4410,3999999999996362021	634	32	1	38	552	20	110,4000000000000056843
070423	13:27:27	1	SST	CRTT	deer.jpg	5000	545	37	1	39	552	20	110,4000000000000056843
070423	13:27:27	1	SST	CRTT	tank.jpg	6000	603	32	1	40	552	20	110,4000000000000056843
070423	13:27:27	1	SST	CRTT	deer.jpg	6000	530	37	1	41	552	20	110,4000000000000056843
070423	13:27:27	1	SST	CRTTstop	tank.jpg	4000	55	0	0	41	552	10	55,2000000000000028422
070423	13:27:27	1	SST	CRTTstop2	tank.jpg	4000	695	0	0	41	552	10	55,2000000000000028422
070423	13:27:27	1	SST	CRTTstop	deer.jpg	5355,1999999999998181011	442	0	0	41	552	80	441,6000000000000227374
070423	13:27:27	1	SST	CRTTstop2	deer.jpg	5355,1999999999998181011	104	37	1	40	552	80	441,6000000000000227374
070423	13:27:27	1	SST	CRTT	tank.jpg	5500	750	0	0	39	552	80	441,6000000000000227374
070423	13:27:27	1	SST	CRTT	deer.jpg	4500	591	37	1	40	552	80	441,6000000000000227374
070423	13:27:27	1	SST	CRTTstop	tank.jpg	4000	442	0	0	40	552	80	441,6000000000000227374
070423	13:27:27	1	SST	CRTTstop2	tank.jpg	4000	55	32	1	39	552	80	441,6000000000000227374
070423	13:27:27	1	SST	CRTT	deer.jpg	6000	693	37	1	40	552	80	441,6000000000000227374
070423	13:27:27	1	SST	CRTT	tank.jpg	6000	568	32	1	41	552	80	441,6000000000000227374
070423	13:27:27	1	SST	CRTT	deer.jpg	5000	635	37	1	42	552	80	441,6000000000000227374
070423	13:27:27	1	SST	CRTT	deer.jpg	5500	701	37	1	43	552	80	441,6000000000000227374
070423	13:27:27	1	SST	CRTT	tank.jpg	4500	582	32	1	44	552	80	441,6000000000000227374
070423	13:27:27	1	SST	CRTT	deer.jpg	5000	599	37	1	45	552	80	441,6000000000000227374
070423	13:27:27	1	SST	CRTT	tank.jpg	5000	527	32	1	46	552	80	441,6000000000000227374
070423	13:27:27	1	SST	CRTTstop	tank.jpg	4000	386	0	0	46	552	70	386,4000000000000341061
070423	13:27:27	1	SST	CRTTstop2	tank.jpg	4000	203	32	1	45	552	70	386,4000000000000341061
070423	13:27:27	1	SST	CRTTstop	deer.jpg	6000	55	0	0	45	552	10	55,2000000000000028422
070423	13:27:27	1	SST	CRTTstop2	deer.jpg	6000	695	0	0	45	552	10	55,2000000000000028422
070423	13:27:27	1	SST	CRTT	tank.jpg	4855,1999999999998181011	636	32	1	46	552	10	55,2000000000000028422
070423	13:27:27	1	SST	CRTTstop	deer.jpg	4500	110	0	0	46	552	20	110,4000000000000056843
070423	13:27:27	1	SST	CRTTstop2	deer.jpg	4500	640	0	0	46	552	20	110,4000000000000056843
070423	13:27:27	1	SST	CRTT	tank.jpg	3410,4000000000000909495	644	32	1	47	552	20	110,4000000000000056843
070423	13:27:27	1	SST	CRTTstop	deer.jpg	5500	55	0	0	47	552	10	55,2000000000000028422
070423	13:27:27	1	SST	CRTTstop2	deer.jpg	5500	695	0	0	47	552	10	55,2000000000000028422
070423	13:27:27	1	SST	CRTT	deer.jpg	4855,1999999999998181011	750	0	0	46	552	10	55,2000000000000028422
070423	13:27:27	1	SST	CRTTstop	tank.jpg	4500	110	0	0	46	552	20	110,4000000000000056843
070423	13:27:27	1	SST	CRTTstop2	tank.jpg	4500	640	0	0	46	552	20	110,4000000000000056843
070423	13:27:27	1	SST	CRTT	deer.jpg	5410,3999999999996362021	624	37	1	47	552	20	110,4000000000000056843
