date	time	subject	blockcode	trialcode	picture.target.currentitem	values.stiminterval	latency	response	correct	values.score	values.AverageRTpractice	values.SSDcoeffitient	values.SSD
061323	12:21:11	1	Practice	CRTTpractice	tank.jpg	4500	750	0	0	-1	0	0	0
061323	12:21:11	1	Practice	CRTTpractice	deer.jpg	6000	633	37	1	0	0	0	0
061323	12:21:11	1	Practice	CRTTpractice	deer.jpg	5000	511	37	1	1	0	0	0
061323	12:21:11	1	Practice	CRTTpractice	tank.jpg	4500	440	32	1	2	0	0	0
061323	12:21:11	1	Practice	CRTTpractice	deer.jpg	5000	447	37	1	3	0	0	0
061323	12:21:11	1	Practice	CRTTpractice	tank.jpg	4500	363	32	1	4	0	0	0
061323	12:21:11	1	Practice	CRTTpractice	tank.jpg	5000	469	32	1	5	0	0	0
061323	12:21:11	1	Practice	CRTTpractice	deer.jpg	5500	375	37	1	6	0	0	0
061323	12:21:11	1	Practice	CRTTpractice	tank.jpg	6000	463	32	1	7	0	0	0
061323	12:21:11	1	Practice	CRTTpractice	deer.jpg	4500	490	37	1	8	0	0	0
061323	12:21:11	1	Practice	CRTTpractice	tank.jpg	4500	500	32	1	9	0	0	0
061323	12:21:11	1	Practice	CRTTpractice	deer.jpg	5000	496	37	1	10	0	0	0
061323	12:21:11	1	Practice	CRTTpractice	deer.jpg	6000	484	37	1	11	0	0	0
061323	12:21:11	1	Practice	CRTTpractice	tank.jpg	6000	464	32	1	12	0	0	0
061323	12:21:11	1	Practice	CRTTpractice	deer.jpg	5000	446	37	1	13	0	0	0
061323	12:21:11	1	Practice	CRTTpractice	tank.jpg	5500	480	32	1	14	0	0	0
061323	12:21:11	1	Practice	CRTTpractice	tank.jpg	5000	501	32	1	15	0	0	0
061323	12:21:11	1	Practice	CRTTpractice	deer.jpg	6000	441	37	1	16	0	0	0
061323	12:21:11	1	Practice	CRTTpractice	deer.jpg	4500	556	37	1	17	0	0	0
061323	12:21:11	1	Practice	CRTTpractice	tank.jpg	4000	512	32	1	18	0	0	0
061323	12:21:11	1	Practice	CRTTpractice	deer.jpg	5000	453	37	1	19	0	0	0
061323	12:21:11	1	Practice	CRTTpractice	tank.jpg	6000	466	32	1	20	0	0	0
061323	12:21:11	1	Practice	CRTTpractice	deer.jpg	5500	443	37	1	21	0	0	0
061323	12:21:11	1	Practice	CRTTpractice	tank.jpg	5000	475	32	1	22	0	0	0
061323	12:21:11	1	Practice	CRTTpractice	deer.jpg	6000	447	37	1	23	0	0	0
061323	12:21:11	1	Practice	CRTTpractice	tank.jpg	5500	426	32	1	24	0	0	0
061323	12:21:11	1	Practice	CRTTpractice	deer.jpg	6000	489	37	1	25	0	0	0
061323	12:21:11	1	Practice	CRTTpractice	tank.jpg	6000	573	32	1	26	0	0	0
061323	12:21:11	1	Practice	CRTTpractice	deer.jpg	4500	475	37	1	27	0	0	0
061323	12:21:11	1	Practice	CRTTpractice	tank.jpg	5500	557	32	1	28	0	0	0
061323	12:21:11	1	SST	CRTT	tank.jpg	6000	484	32	1	29	488	0	0
061323	12:21:11	1	SST	CRTT	deer.jpg	5500	501	37	1	30	488	0	0
061323	12:21:11	1	SST	CRTT	deer.jpg	4000	370	32	0	29	488	0	0
061323	12:21:11	1	SST	CRTTstop	tank.jpg	6000	49	0	0	29	488	10	48,8000000000000042633
061323	12:21:11	1	SST	CRTTstop2	tank.jpg	6000	701	0	0	29	488	10	48,8000000000000042633
061323	12:21:11	1	SST	CRTT	tank.jpg	3348,8000000000001818989	521	32	1	30	488	10	48,8000000000000042633
061323	12:21:11	1	SST	CRTTstop	deer.jpg	4000	342	0	0	30	488	70	341,6000000000000227374
061323	12:21:11	1	SST	CRTTstop2	deer.jpg	4000	159	37	1	29	488	70	341,6000000000000227374
061323	12:21:11	1	SST	CRTT	tank.jpg	4500	526	32	1	30	488	70	341,6000000000000227374
061323	12:21:11	1	SST	CRTTstop	deer.jpg	4500	98	0	0	30	488	20	97,6000000000000085265
061323	12:21:11	1	SST	CRTTstop2	deer.jpg	4500	652	0	0	30	488	20	97,6000000000000085265
061323	12:21:11	1	SST	CRTT	deer.jpg	3397,5999999999999090505	715	37	1	31	488	20	97,6000000000000085265
061323	12:21:11	1	SST	CRTT	tank.jpg	6000	686	32	1	32	488	20	97,6000000000000085265
061323	12:21:11	1	SST	CRTT	tank.jpg	5500	518	32	1	33	488	20	97,6000000000000085265
061323	12:21:11	1	SST	CRTT	deer.jpg	4500	518	37	1	34	488	20	97,6000000000000085265
061323	12:21:11	1	SST	CRTT	deer.jpg	4500	551	37	1	35	488	20	97,6000000000000085265
061323	12:21:11	1	SST	CRTTstop	tank.jpg	6000	390	0	0	35	488	80	390,4000000000000341061
061323	12:21:11	1	SST	CRTTstop2	tank.jpg	6000	184	32	1	34	488	80	390,4000000000000341061
061323	12:21:11	1	SST	CRTTstop	tank.jpg	4000	342	0	0	34	488	70	341,6000000000000227374
061323	12:21:11	1	SST	CRTTstop2	tank.jpg	4000	408	0	0	34	488	70	341,6000000000000227374
061323	12:21:11	1	SST	CRTT	deer.jpg	5141,6000000000003637979	750	0	0	33	488	70	341,6000000000000227374
061323	12:21:11	1	SST	CRTT	deer.jpg	4500	726	37	1	34	488	70	341,6000000000000227374
061323	12:21:11	1	SST	CRTT	tank.jpg	5000	698	32	1	35	488	70	341,6000000000000227374
061323	12:21:11	1	SST	CRTTstop	tank.jpg	6000	98	0	0	35	488	20	97,6000000000000085265
061323	12:21:11	1	SST	CRTTstop2	tank.jpg	6000	652	0	0	35	488	20	97,6000000000000085265
061323	12:21:11	1	SST	CRTTstop	deer.jpg	3397,5999999999999090505	390	0	0	35	488	80	390,4000000000000341061
061323	12:21:11	1	SST	CRTTstop2	deer.jpg	3397,5999999999999090505	360	0	0	35	488	80	390,4000000000000341061
061323	12:21:11	1	SST	CRTT	tank.jpg	4190,3999999999996362021	750	0	0	34	488	80	390,4000000000000341061
061323	12:21:11	1	SST	CRTTstop	deer.jpg	5500	49	0	0	34	488	10	48,8000000000000042633
061323	12:21:11	1	SST	CRTTstop2	deer.jpg	5500	701	0	0	34	488	10	48,8000000000000042633
061323	12:21:11	1	SST	CRTT	tank.jpg	3848,8000000000001818989	686	32	1	35	488	10	48,8000000000000042633
061323	12:21:11	1	SST	CRTT	deer.jpg	6000	714	37	1	36	488	10	48,8000000000000042633
061323	12:21:11	1	SST	CRTTstop	deer.jpg	4000	342	0	0	36	488	70	341,6000000000000227374
061323	12:21:11	1	SST	CRTTstop2	deer.jpg	4000	224	37	1	35	488	70	341,6000000000000227374
061323	12:21:11	1	SST	CRTT	tank.jpg	4000	737	32	1	36	488	70	341,6000000000000227374
061323	12:21:11	1	SST	CRTTstop	tank.jpg	6000	390	0	0	36	488	80	390,4000000000000341061
061323	12:21:11	1	SST	CRTTstop2	tank.jpg	6000	360	0	0	36	488	80	390,4000000000000341061
061323	12:21:11	1	SST	CRTT	deer.jpg	5190,3999999999996362021	750	0	0	35	488	80	390,4000000000000341061
061323	12:21:11	1	SST	CRTT	deer.jpg	4000	561	37	1	36	488	80	390,4000000000000341061
061323	12:21:11	1	SST	CRTTstop	tank.jpg	4500	49	0	0	36	488	10	48,8000000000000042633
061323	12:21:11	1	SST	CRTTstop2	tank.jpg	4500	701	0	0	36	488	10	48,8000000000000042633
061323	12:21:11	1	SST	CRTTstop	tank.jpg	3348,8000000000001818989	98	0	0	36	488	20	97,6000000000000085265
061323	12:21:11	1	SST	CRTTstop2	tank.jpg	3348,8000000000001818989	652	0	0	36	488	20	97,6000000000000085265
061323	12:21:11	1	SST	CRTT	deer.jpg	4397,6000000000003637979	499	37	1	37	488	20	97,6000000000000085265
061323	12:21:11	1	SST	CRTT	tank.jpg	5500	666	32	1	38	488	20	97,6000000000000085265
061323	12:21:11	1	SST	CRTTstop	deer.jpg	6000	98	0	0	38	488	20	97,6000000000000085265
061323	12:21:11	1	SST	CRTTstop2	deer.jpg	6000	652	0	0	38	488	20	97,6000000000000085265
061323	12:21:11	1	SST	CRTT	deer.jpg	3397,5999999999999090505	459	37	1	39	488	20	97,6000000000000085265
061323	12:21:11	1	SST	CRTTstop	tank.jpg	4000	342	0	0	39	488	70	341,6000000000000227374
061323	12:21:11	1	SST	CRTTstop2	tank.jpg	4000	349	32	1	38	488	70	341,6000000000000227374
061323	12:21:11	1	SST	CRTT	tank.jpg	6000	718	32	1	39	488	70	341,6000000000000227374
061323	12:21:11	1	SST	CRTT	deer.jpg	6000	601	37	1	40	488	70	341,6000000000000227374
061323	12:21:11	1	SST	CRTT	tank.jpg	5000	529	32	1	41	488	70	341,6000000000000227374
061323	12:21:11	1	SST	CRTT	deer.jpg	4000	653	37	1	42	488	70	341,6000000000000227374
061323	12:21:11	1	SST	CRTT	tank.jpg	5000	750	0	0	41	488	70	341,6000000000000227374
061323	12:21:11	1	SST	CRTT	deer.jpg	4500	490	37	1	42	488	70	341,6000000000000227374
061323	12:21:11	1	SST	CRTT	tank.jpg	5000	455	32	1	43	488	70	341,6000000000000227374
061323	12:21:11	1	SST	CRTTstop	deer.jpg	4500	49	0	0	43	488	10	48,8000000000000042633
061323	12:21:11	1	SST	CRTTstop2	deer.jpg	4500	701	0	0	43	488	10	48,8000000000000042633
061323	12:21:11	1	SST	CRTT	tank.jpg	5348,8000000000001818989	535	32	1	44	488	10	48,8000000000000042633
061323	12:21:11	1	SST	CRTT	deer.jpg	4500	526	37	1	45	488	10	48,8000000000000042633
061323	12:21:11	1	SST	CRTT	deer.jpg	5000	546	37	1	46	488	10	48,8000000000000042633
061323	12:21:11	1	SST	CRTTstop	tank.jpg	5000	390	0	0	46	488	80	390,4000000000000341061
061323	12:21:11	1	SST	CRTTstop2	tank.jpg	5000	117	32	1	45	488	80	390,4000000000000341061
061323	12:21:11	1	SST	CRTT	deer.jpg	4500	670	37	1	46	488	80	390,4000000000000341061
061323	12:21:11	1	SST	CRTT	tank.jpg	6000	578	32	1	47	488	80	390,4000000000000341061
061323	12:21:11	1	SST	CRTTstop	deer.jpg	6000	342	0	0	47	488	70	341,6000000000000227374
061323	12:21:11	1	SST	CRTTstop2	deer.jpg	6000	408	0	0	47	488	70	341,6000000000000227374
061323	12:21:11	1	SST	CRTT	tank.jpg	3641,5999999999999090505	750	0	0	46	488	70	341,6000000000000227374
061323	12:21:11	1	SST	CRTT	deer.jpg	4000	464	37	1	47	488	70	341,6000000000000227374
061323	12:21:11	1	SST	CRTTstop	tank.jpg	4000	390	0	0	47	488	80	390,4000000000000341061
061323	12:21:11	1	SST	CRTTstop2	tank.jpg	4000	63	32	1	46	488	80	390,4000000000000341061
061323	12:21:11	1	SST	CRTT	deer.jpg	5500	537	37	1	47	488	80	390,4000000000000341061
061323	12:21:11	1	SST	CRTT	tank.jpg	5500	704	32	1	48	488	80	390,4000000000000341061
061323	12:21:11	1	SST	CRTTstop	deer.jpg	4500	49	0	0	48	488	10	48,8000000000000042633
061323	12:21:11	1	SST	CRTTstop2	deer.jpg	4500	701	0	0	48	488	10	48,8000000000000042633
061323	12:21:11	1	SST	CRTTstop	tank.jpg	3848,8000000000001818989	98	0	0	48	488	20	97,6000000000000085265
061323	12:21:11	1	SST	CRTTstop2	tank.jpg	3848,8000000000001818989	652	0	0	48	488	20	97,6000000000000085265
061323	12:21:11	1	SST	CRTTstop	tank.jpg	3397,5999999999999090505	390	0	0	48	488	80	390,4000000000000341061
061323	12:21:11	1	SST	CRTTstop2	tank.jpg	3397,5999999999999090505	198	32	1	47	488	80	390,4000000000000341061
061323	12:21:11	1	SST	CRTT	deer.jpg	5000	728	37	1	48	488	80	390,4000000000000341061
061323	12:21:11	1	SST	CRTT	tank.jpg	4000	644	32	1	49	488	80	390,4000000000000341061
061323	12:21:11	1	SST	CRTT	deer.jpg	5500	590	37	1	50	488	80	390,4000000000000341061
061323	12:21:11	1	SST	CRTT	tank.jpg	4000	641	32	1	51	488	80	390,4000000000000341061
061323	12:21:11	1	SST	CRTT	deer.jpg	5000	656	37	1	52	488	80	390,4000000000000341061
061323	12:21:11	1	SST	CRTT	deer.jpg	4000	511	37	1	53	488	80	390,4000000000000341061
061323	12:21:11	1	SST	CRTT	tank.jpg	4000	660	32	1	54	488	80	390,4000000000000341061
061323	12:21:11	1	SST	CRTT	tank.jpg	6000	602	32	1	55	488	80	390,4000000000000341061
061323	12:21:11	1	SST	CRTTstop	deer.jpg	4000	49	0	0	55	488	10	48,8000000000000042633
061323	12:21:11	1	SST	CRTTstop2	deer.jpg	4000	701	0	0	55	488	10	48,8000000000000042633
061323	12:21:11	1	SST	CRTTstop	deer.jpg	4848,8000000000001818989	98	0	0	55	488	20	97,6000000000000085265
061323	12:21:11	1	SST	CRTTstop2	deer.jpg	4848,8000000000001818989	652	0	0	55	488	20	97,6000000000000085265
061323	12:21:11	1	SST	CRTT	tank.jpg	3397,5999999999999090505	608	32	1	56	488	20	97,6000000000000085265
061323	12:21:11	1	SST	CRTTstop	tank.jpg	5500	342	0	0	56	488	70	341,6000000000000227374
061323	12:21:11	1	SST	CRTTstop2	tank.jpg	5500	174	32	1	55	488	70	341,6000000000000227374
061323	12:21:11	1	SST	CRTT	deer.jpg	5000	584	37	1	56	488	70	341,6000000000000227374
061323	12:21:11	1	SST	CRTT	tank.jpg	4000	602	32	1	57	488	70	341,6000000000000227374
061323	12:21:11	1	SST	CRTTstop	deer.jpg	5500	49	0	0	57	488	10	48,8000000000000042633
061323	12:21:11	1	SST	CRTTstop2	deer.jpg	5500	701	0	0	57	488	10	48,8000000000000042633
061323	12:21:11	1	SST	CRTTstop	deer.jpg	3348,8000000000001818989	98	0	0	57	488	20	97,6000000000000085265
061323	12:21:11	1	SST	CRTTstop2	deer.jpg	3348,8000000000001818989	652	0	0	57	488	20	97,6000000000000085265
061323	12:21:11	1	SST	CRTT	tank.jpg	5397,6000000000003637979	591	32	1	58	488	20	97,6000000000000085265
061323	12:21:11	1	SST	CRTT	tank.jpg	5000	480	32	1	59	488	20	97,6000000000000085265
061323	12:21:11	1	SST	CRTTstop	deer.jpg	5500	342	0	0	59	488	70	341,6000000000000227374
061323	12:21:11	1	SST	CRTTstop2	deer.jpg	5500	147	32	1	58	488	70	341,6000000000000227374
061323	12:21:11	1	SST	CRTT	tank.jpg	5000	494	32	1	59	488	70	341,6000000000000227374
061323	12:21:11	1	SST	CRTTstop	deer.jpg	5000	390	0	0	59	488	80	390,4000000000000341061
061323	12:21:11	1	SST	CRTTstop2	deer.jpg	5000	186	37	1	58	488	80	390,4000000000000341061
061323	12:21:11	1	SST	CRTT	tank.jpg	5500	487	32	1	59	488	80	390,4000000000000341061
061323	12:21:11	1	SST	CRTT	deer.jpg	4500	750	0	0	58	488	80	390,4000000000000341061
061323	12:21:11	1	SST	CRTT	deer.jpg	4000	750	0	0	57	488	80	390,4000000000000341061
061323	12:21:11	1	SST	CRTTstop	tank.jpg	5500	49	0	0	57	488	10	48,8000000000000042633
061323	12:21:11	1	SST	CRTTstop2	tank.jpg	5500	701	0	0	57	488	10	48,8000000000000042633
061323	12:21:11	1	SST	CRTTstop	deer.jpg	4348,8000000000001818989	390	0	0	57	488	80	390,4000000000000341061
061323	12:21:11	1	SST	CRTTstop2	deer.jpg	4348,8000000000001818989	87	37	1	56	488	80	390,4000000000000341061
061323	12:21:11	1	SST	CRTTstop	tank.jpg	4000	98	0	0	56	488	20	97,6000000000000085265
061323	12:21:11	1	SST	CRTTstop2	tank.jpg	4000	652	0	0	56	488	20	97,6000000000000085265
061323	12:21:11	1	SST	CRTTstop	tank.jpg	4897,6000000000003637979	342	0	0	56	488	70	341,6000000000000227374
061323	12:21:11	1	SST	CRTTstop2	tank.jpg	4897,6000000000003637979	408	0	0	56	488	70	341,6000000000000227374
061323	12:21:11	1	SST	CRTT	deer.jpg	5641,6000000000003637979	493	37	1	57	488	70	341,6000000000000227374
061323	12:21:11	1	SST	CRTT	tank.jpg	6000	666	32	1	58	488	70	341,6000000000000227374
061323	12:21:11	1	SST	CRTT	deer.jpg	6000	702	37	1	59	488	70	341,6000000000000227374
061323	12:21:11	1	SST	CRTT	tank.jpg	5500	630	32	1	60	488	70	341,6000000000000227374
061323	12:21:11	1	SST	CRTTstop	deer.jpg	5500	342	0	0	60	488	70	341,6000000000000227374
061323	12:21:11	1	SST	CRTTstop2	deer.jpg	5500	219	37	1	59	488	70	341,6000000000000227374
061323	12:21:11	1	SST	CRTT	tank.jpg	5500	710	32	1	60	488	70	341,6000000000000227374
061323	12:21:11	1	SST	CRTTstop	deer.jpg	6000	98	0	0	60	488	20	97,6000000000000085265
061323	12:21:11	1	SST	CRTTstop2	deer.jpg	6000	652	0	0	60	488	20	97,6000000000000085265
061323	12:21:11	1	SST	CRTT	tank.jpg	5397,6000000000003637979	732	32	1	61	488	20	97,6000000000000085265
061323	12:21:11	1	SST	CRTT	deer.jpg	5500	750	0	0	60	488	20	97,6000000000000085265
