date	time	subject	blockcode	trialcode	picture.target.currentitem	values.stiminterval	latency	response	correct	values.score	values.AverageRTpractice	values.SSDcoeffitient	values.SSD
061323	16:53:56	1	Practice	CRTTpractice	tank.jpg	5500	750	0	0	-1	0	0	0
061323	16:53:56	1	Practice	CRTTpractice	deer.jpg	4000	582	37	1	0	0	0	0
061323	16:53:56	1	Practice	CRTTpractice	deer.jpg	4500	603	37	1	1	0	0	0
061323	16:53:56	1	Practice	CRTTpractice	tank.jpg	5000	395	32	1	2	0	0	0
061323	16:53:56	1	Practice	CRTTpractice	tank.jpg	5000	750	0	0	1	0	0	0
061323	16:53:56	1	Practice	CRTTpractice	deer.jpg	4500	492	37	1	2	0	0	0
061323	16:53:56	1	Practice	CRTTpractice	deer.jpg	4500	581	37	1	3	0	0	0
061323	16:53:56	1	Practice	CRTTpractice	tank.jpg	4000	367	32	1	4	0	0	0
061323	16:53:56	1	Practice	CRTTpractice	tank.jpg	4000	490	32	1	5	0	0	0
061323	16:53:56	1	Practice	CRTTpractice	deer.jpg	4500	476	37	1	6	0	0	0
061323	16:53:56	1	Practice	CRTTpractice	deer.jpg	6000	569	37	1	7	0	0	0
061323	16:53:56	1	Practice	CRTTpractice	tank.jpg	6000	393	32	1	8	0	0	0
061323	16:53:56	1	Practice	CRTTpractice	tank.jpg	5000	507	32	1	9	0	0	0
061323	16:53:56	1	Practice	CRTTpractice	deer.jpg	4500	428	37	1	10	0	0	0
061323	16:53:56	1	Practice	CRTTpractice	tank.jpg	5000	436	32	1	11	0	0	0
061323	16:53:56	1	Practice	CRTTpractice	deer.jpg	4000	540	37	1	12	0	0	0
061323	16:53:56	1	Practice	CRTTpractice	tank.jpg	5000	471	32	1	13	0	0	0
061323	16:53:56	1	Practice	CRTTpractice	deer.jpg	5000	469	37	1	14	0	0	0
061323	16:53:56	1	Practice	CRTTpractice	tank.jpg	4000	459	32	1	15	0	0	0
061323	16:53:56	1	Practice	CRTTpractice	deer.jpg	6000	750	0	0	14	0	0	0
061323	16:53:56	1	Practice	CRTTpractice	deer.jpg	4500	352	32	0	13	0	0	0
061323	16:53:56	1	Practice	CRTTpractice	tank.jpg	5000	490	32	1	14	0	0	0
061323	16:53:56	1	Practice	CRTTpractice	deer.jpg	5000	527	32	0	13	0	0	0
061323	16:53:56	1	Practice	CRTTpractice	tank.jpg	5000	579	32	1	14	0	0	0
061323	16:53:56	1	Practice	CRTTpractice	tank.jpg	5500	496	32	1	15	0	0	0
061323	16:53:56	1	Practice	CRTTpractice	deer.jpg	4000	382	37	1	16	0	0	0
061323	16:53:56	1	Practice	CRTTpractice	tank.jpg	4000	336	32	1	17	0	0	0
061323	16:53:56	1	Practice	CRTTpractice	deer.jpg	4500	408	37	1	18	0	0	0
061323	16:53:56	1	Practice	CRTTpractice	deer.jpg	4000	750	0	0	17	0	0	0
061323	16:53:56	1	Practice	CRTTpractice	tank.jpg	4500	384	32	1	18	0	0	0
061323	16:53:56	1	SST	CRTT	tank.jpg	5000	606	32	1	19	507	0	0
061323	16:53:56	1	SST	CRTT	deer.jpg	4000	344	37	1	20	507	0	0
061323	16:53:56	1	SST	CRTT	deer.jpg	4500	655	37	1	21	507	0	0
061323	16:53:56	1	SST	CRTTstop	tank.jpg	6000	355	0	0	21	507	70	354,9000000000000341061
061323	16:53:56	1	SST	CRTTstop2	tank.jpg	6000	158	32	1	20	507	70	354,9000000000000341061
061323	16:53:56	1	SST	CRTT	tank.jpg	5500	628	32	1	21	507	70	354,9000000000000341061
061323	16:53:56	1	SST	CRTT	deer.jpg	4500	536	37	1	22	507	70	354,9000000000000341061
061323	16:53:56	1	SST	CRTT	tank.jpg	4000	341	32	1	23	507	70	354,9000000000000341061
061323	16:53:56	1	SST	CRTTstop	deer.jpg	6000	101	0	0	23	507	20	101,4000000000000056843
061323	16:53:56	1	SST	CRTTstop2	deer.jpg	6000	649	0	0	23	507	20	101,4000000000000056843
061323	16:53:56	1	SST	CRTTstop	deer.jpg	4401,3999999999996362021	51	0	0	23	507	10	50,7000000000000028422
061323	16:53:56	1	SST	CRTTstop2	deer.jpg	4401,3999999999996362021	699	0	0	23	507	10	50,7000000000000028422
061323	16:53:56	1	SST	CRTT	tank.jpg	4850,6999999999998181011	715	32	1	24	507	10	50,7000000000000028422
061323	16:53:56	1	SST	CRTT	tank.jpg	6000	638	32	1	25	507	10	50,7000000000000028422
061323	16:53:56	1	SST	CRTTstop	deer.jpg	4000	406	0	0	25	507	80	405,6000000000000227374
061323	16:53:56	1	SST	CRTTstop2	deer.jpg	4000	309	37	1	24	507	80	405,6000000000000227374
061323	16:53:56	1	SST	CRTT	tank.jpg	6000	664	32	1	25	507	80	405,6000000000000227374
061323	16:53:56	1	SST	CRTT	deer.jpg	4000	407	37	1	26	507	80	405,6000000000000227374
061323	16:53:56	1	SST	CRTT	tank.jpg	4000	584	32	1	27	507	80	405,6000000000000227374
061323	16:53:56	1	SST	CRTT	deer.jpg	6000	440	37	1	28	507	80	405,6000000000000227374
061323	16:53:56	1	SST	CRTTstop	deer.jpg	4000	406	0	0	28	507	80	405,6000000000000227374
061323	16:53:56	1	SST	CRTTstop2	deer.jpg	4000	176	37	1	27	507	80	405,6000000000000227374
061323	16:53:56	1	SST	CRTT	tank.jpg	5000	634	32	1	28	507	80	405,6000000000000227374
061323	16:53:56	1	SST	CRTTstop	tank.jpg	5000	355	0	0	28	507	70	354,9000000000000341061
061323	16:53:56	1	SST	CRTTstop2	tank.jpg	5000	209	32	1	27	507	70	354,9000000000000341061
061323	16:53:56	1	SST	CRTTstop	deer.jpg	6000	101	0	0	27	507	20	101,4000000000000056843
061323	16:53:56	1	SST	CRTTstop2	deer.jpg	6000	649	0	0	27	507	20	101,4000000000000056843
061323	16:53:56	1	SST	CRTT	deer.jpg	3401,4000000000000909495	750	0	0	26	507	20	101,4000000000000056843
061323	16:53:56	1	SST	CRTTstop	tank.jpg	6000	51	0	0	26	507	10	50,7000000000000028422
061323	16:53:56	1	SST	CRTTstop2	tank.jpg	6000	699	0	0	26	507	10	50,7000000000000028422
061323	16:53:56	1	SST	CRTT	tank.jpg	3850,6999999999998181011	609	32	1	27	507	10	50,7000000000000028422
061323	16:53:56	1	SST	CRTTstop	deer.jpg	4000	355	0	0	27	507	70	354,9000000000000341061
061323	16:53:56	1	SST	CRTTstop2	deer.jpg	4000	395	0	0	27	507	70	354,9000000000000341061
061323	16:53:56	1	SST	CRTT	deer.jpg	4154,8999999999996362021	736	37	1	28	507	70	354,9000000000000341061
061323	16:53:56	1	SST	CRTTstop	tank.jpg	5500	406	0	0	28	507	80	405,6000000000000227374
061323	16:53:56	1	SST	CRTTstop2	tank.jpg	5500	62	32	1	27	507	80	405,6000000000000227374
061323	16:53:56	1	SST	CRTTstop	tank.jpg	4500	51	0	0	27	507	10	50,7000000000000028422
061323	16:53:56	1	SST	CRTTstop2	tank.jpg	4500	699	0	0	27	507	10	50,7000000000000028422
061323	16:53:56	1	SST	CRTT	deer.jpg	5350,6999999999998181011	685	37	1	28	507	10	50,7000000000000028422
061323	16:53:56	1	SST	CRTT	deer.jpg	4000	750	0	0	27	507	10	50,7000000000000028422
061323	16:53:56	1	SST	CRTT	tank.jpg	4000	607	32	1	28	507	10	50,7000000000000028422
061323	16:53:56	1	SST	CRTT	tank.jpg	4500	587	32	1	29	507	10	50,7000000000000028422
061323	16:53:56	1	SST	CRTT	deer.jpg	5000	645	37	1	30	507	10	50,7000000000000028422
061323	16:53:56	1	SST	CRTT	deer.jpg	4500	616	37	1	31	507	10	50,7000000000000028422
061323	16:53:56	1	SST	CRTTstop	tank.jpg	4500	101	0	0	31	507	20	101,4000000000000056843
061323	16:53:56	1	SST	CRTTstop2	tank.jpg	4500	649	0	0	31	507	20	101,4000000000000056843
061323	16:53:56	1	SST	CRTT	tank.jpg	3901,4000000000000909495	540	32	1	32	507	20	101,4000000000000056843
061323	16:53:56	1	SST	CRTTstop	deer.jpg	6000	406	0	0	32	507	80	405,6000000000000227374
061323	16:53:56	1	SST	CRTTstop2	deer.jpg	6000	125	37	1	31	507	80	405,6000000000000227374
061323	16:53:56	1	SST	CRTT	deer.jpg	4500	686	37	1	32	507	80	405,6000000000000227374
061323	16:53:56	1	SST	CRTTstop	tank.jpg	5500	51	0	0	32	507	10	50,7000000000000028422
061323	16:53:56	1	SST	CRTTstop2	tank.jpg	5500	699	0	0	32	507	10	50,7000000000000028422
061323	16:53:56	1	SST	CRTT	tank.jpg	3850,6999999999998181011	624	32	1	33	507	10	50,7000000000000028422
061323	16:53:56	1	SST	CRTT	deer.jpg	4500	636	37	1	34	507	10	50,7000000000000028422
061323	16:53:56	1	SST	CRTTstop	tank.jpg	5500	101	0	0	34	507	20	101,4000000000000056843
061323	16:53:56	1	SST	CRTTstop2	tank.jpg	5500	649	0	0	34	507	20	101,4000000000000056843
061323	16:53:56	1	SST	CRTT	deer.jpg	4401,3999999999996362021	634	37	1	35	507	20	101,4000000000000056843
061323	16:53:56	1	SST	CRTT	deer.jpg	4500	598	37	1	36	507	20	101,4000000000000056843
061323	16:53:56	1	SST	CRTT	tank.jpg	4000	647	32	1	37	507	20	101,4000000000000056843
061323	16:53:56	1	SST	CRTT	tank.jpg	4000	567	32	1	38	507	20	101,4000000000000056843
061323	16:53:56	1	SST	CRTT	deer.jpg	5500	747	37	1	39	507	20	101,4000000000000056843
061323	16:53:56	1	SST	CRTTstop	deer.jpg	4500	355	0	0	39	507	70	354,9000000000000341061
061323	16:53:56	1	SST	CRTTstop2	deer.jpg	4500	211	37	1	38	507	70	354,9000000000000341061
061323	16:53:56	1	SST	CRTT	tank.jpg	5500	584	32	1	39	507	70	354,9000000000000341061
061323	16:53:56	1	SST	CRTT	deer.jpg	4500	661	37	1	40	507	70	354,9000000000000341061
061323	16:53:56	1	SST	CRTT	tank.jpg	4500	750	0	0	39	507	70	354,9000000000000341061
061323	16:53:56	1	SST	CRTTstop	deer.jpg	4000	101	0	0	39	507	20	101,4000000000000056843
061323	16:53:56	1	SST	CRTTstop2	deer.jpg	4000	649	0	0	39	507	20	101,4000000000000056843
061323	16:53:56	1	SST	CRTTstop	tank.jpg	5401,3999999999996362021	406	0	0	39	507	80	405,6000000000000227374
061323	16:53:56	1	SST	CRTTstop2	tank.jpg	5401,3999999999996362021	92	32	1	38	507	80	405,6000000000000227374
061323	16:53:56	1	SST	CRTT	deer.jpg	6000	750	0	0	37	507	80	405,6000000000000227374
061323	16:53:56	1	SST	CRTTstop	tank.jpg	5000	51	0	0	37	507	10	50,7000000000000028422
061323	16:53:56	1	SST	CRTTstop2	tank.jpg	5000	699	0	0	37	507	10	50,7000000000000028422
061323	16:53:56	1	SST	CRTT	deer.jpg	4350,6999999999998181011	745	37	1	38	507	10	50,7000000000000028422
061323	16:53:56	1	SST	CRTT	tank.jpg	4000	597	32	1	39	507	10	50,7000000000000028422
061323	16:53:56	1	SST	CRTTstop	tank.jpg	5000	355	0	0	39	507	70	354,9000000000000341061
061323	16:53:56	1	SST	CRTTstop2	tank.jpg	5000	395	0	0	39	507	70	354,9000000000000341061
061323	16:53:56	1	SST	CRTTstop	deer.jpg	4154,8999999999996362021	51	0	0	39	507	10	50,7000000000000028422
061323	16:53:56	1	SST	CRTTstop2	deer.jpg	4154,8999999999996362021	699	0	0	39	507	10	50,7000000000000028422
061323	16:53:56	1	SST	CRTT	deer.jpg	3350,6999999999998181011	594	37	1	40	507	10	50,7000000000000028422
061323	16:53:56	1	SST	CRTT	tank.jpg	6000	562	32	1	41	507	10	50,7000000000000028422
061323	16:53:56	1	SST	CRTT	deer.jpg	6000	571	37	1	42	507	10	50,7000000000000028422
061323	16:53:56	1	SST	CRTT	tank.jpg	4500	545	32	1	43	507	10	50,7000000000000028422
061323	16:53:56	1	SST	CRTTstop	tank.jpg	5500	355	0	0	43	507	70	354,9000000000000341061
061323	16:53:56	1	SST	CRTTstop2	tank.jpg	5500	257	32	1	42	507	70	354,9000000000000341061
061323	16:53:56	1	SST	CRTT	deer.jpg	5000	551	37	1	43	507	70	354,9000000000000341061
061323	16:53:56	1	SST	CRTT	tank.jpg	5500	750	0	0	42	507	70	354,9000000000000341061
061323	16:53:56	1	SST	CRTT	deer.jpg	6000	750	0	0	41	507	70	354,9000000000000341061
061323	16:53:56	1	SST	CRTT	tank.jpg	6000	728	32	1	42	507	70	354,9000000000000341061
061323	16:53:56	1	SST	CRTT	deer.jpg	6000	522	37	1	43	507	70	354,9000000000000341061
061323	16:53:56	1	SST	CRTT	deer.jpg	5000	662	37	1	44	507	70	354,9000000000000341061
061323	16:53:56	1	SST	CRTT	tank.jpg	5500	648	32	1	45	507	70	354,9000000000000341061
061323	16:53:56	1	SST	CRTTstop	deer.jpg	4500	406	0	0	45	507	80	405,6000000000000227374
061323	16:53:56	1	SST	CRTTstop2	deer.jpg	4500	201	37	1	44	507	80	405,6000000000000227374
061323	16:53:56	1	SST	CRTT	tank.jpg	5000	571	32	1	45	507	80	405,6000000000000227374
061323	16:53:56	1	SST	CRTTstop	deer.jpg	6000	101	0	0	45	507	20	101,4000000000000056843
061323	16:53:56	1	SST	CRTTstop2	deer.jpg	6000	649	0	0	45	507	20	101,4000000000000056843
061323	16:53:56	1	SST	CRTT	tank.jpg	3901,4000000000000909495	659	32	1	46	507	20	101,4000000000000056843
061323	16:53:56	1	SST	CRTTstop	tank.jpg	5000	101	0	0	46	507	20	101,4000000000000056843
061323	16:53:56	1	SST	CRTTstop2	tank.jpg	5000	649	0	0	46	507	20	101,4000000000000056843
061323	16:53:56	1	SST	CRTT	deer.jpg	5401,3999999999996362021	580	37	1	47	507	20	101,4000000000000056843
061323	16:53:56	1	SST	CRTTstop	deer.jpg	5500	406	0	0	47	507	80	405,6000000000000227374
061323	16:53:56	1	SST	CRTTstop2	deer.jpg	5500	344	0	0	47	507	80	405,6000000000000227374
061323	16:53:56	1	SST	CRTT	tank.jpg	5205,6000000000003637979	750	0	0	46	507	80	405,6000000000000227374
061323	16:53:56	1	SST	CRTTstop	tank.jpg	5500	355	0	0	46	507	70	354,9000000000000341061
061323	16:53:56	1	SST	CRTTstop2	tank.jpg	5500	395	0	0	46	507	70	354,9000000000000341061
061323	16:53:56	1	SST	CRTTstop	deer.jpg	5654,8999999999996362021	51	0	0	46	507	10	50,7000000000000028422
061323	16:53:56	1	SST	CRTTstop2	deer.jpg	5654,8999999999996362021	699	0	0	46	507	10	50,7000000000000028422
061323	16:53:56	1	SST	CRTT	tank.jpg	4850,6999999999998181011	546	32	1	47	507	10	50,7000000000000028422
061323	16:53:56	1	SST	CRTT	deer.jpg	6000	716	37	1	48	507	10	50,7000000000000028422
061323	16:53:56	1	SST	CRTTstop	tank.jpg	5500	51	0	0	48	507	10	50,7000000000000028422
061323	16:53:56	1	SST	CRTTstop2	tank.jpg	5500	699	0	0	48	507	10	50,7000000000000028422
061323	16:53:56	1	SST	CRTT	deer.jpg	5350,6999999999998181011	687	37	1	49	507	10	50,7000000000000028422
061323	16:53:56	1	SST	CRTTstop	tank.jpg	5500	406	0	0	49	507	80	405,6000000000000227374
061323	16:53:56	1	SST	CRTTstop2	tank.jpg	5500	247	32	1	48	507	80	405,6000000000000227374
061323	16:53:56	1	SST	CRTT	deer.jpg	6000	741	37	1	49	507	80	405,6000000000000227374
061323	16:53:56	1	SST	CRTT	tank.jpg	4000	689	32	1	50	507	80	405,6000000000000227374
061323	16:53:56	1	SST	CRTT	deer.jpg	4500	691	37	1	51	507	80	405,6000000000000227374
061323	16:53:56	1	SST	CRTT	tank.jpg	5500	731	32	1	52	507	80	405,6000000000000227374
061323	16:53:56	1	SST	CRTTstop	deer.jpg	5000	355	0	0	52	507	70	354,9000000000000341061
061323	16:53:56	1	SST	CRTTstop2	deer.jpg	5000	395	0	0	52	507	70	354,9000000000000341061
061323	16:53:56	1	SST	CRTT	tank.jpg	5154,8999999999996362021	603	32	1	53	507	70	354,9000000000000341061
061323	16:53:56	1	SST	CRTT	deer.jpg	4500	750	0	0	52	507	70	354,9000000000000341061
061323	16:53:56	1	SST	CRTTstop	tank.jpg	4000	101	0	0	52	507	20	101,4000000000000056843
061323	16:53:56	1	SST	CRTTstop2	tank.jpg	4000	649	0	0	52	507	20	101,4000000000000056843
061323	16:53:56	1	SST	CRTTstop	deer.jpg	3901,4000000000000909495	406	0	0	52	507	80	405,6000000000000227374
061323	16:53:56	1	SST	CRTTstop2	deer.jpg	3901,4000000000000909495	234	37	1	51	507	80	405,6000000000000227374
061323	16:53:56	1	SST	CRTT	tank.jpg	5500	701	32	1	52	507	80	405,6000000000000227374
061323	16:53:56	1	SST	CRTTstop	deer.jpg	5000	355	0	0	52	507	70	354,9000000000000341061
061323	16:53:56	1	SST	CRTTstop2	deer.jpg	5000	395	0	0	52	507	70	354,9000000000000341061
061323	16:53:56	1	SST	CRTT	tank.jpg	4154,8999999999996362021	750	0	0	51	507	70	354,9000000000000341061
