date	time	subject	blockcode	trialcode	picture.target.currentitem	values.stiminterval	latency	response	correct	values.score	values.AverageRTpractice	values.SSDcoeffitient	values.SSD
092323	12:15:00	1	Practice	CRTTpractice	deer.jpg	4500	661	37	1	1	0	0	0
092323	12:15:00	1	Practice	CRTTpractice	tank.jpg	4500	511	32	1	2	0	0	0
092323	12:15:00	1	Practice	CRTTpractice	tank.jpg	5000	604	32	1	3	0	0	0
092323	12:15:00	1	Practice	CRTTpractice	deer.jpg	6000	539	37	1	4	0	0	0
092323	12:15:00	1	Practice	CRTTpractice	deer.jpg	4000	583	37	1	5	0	0	0
092323	12:15:00	1	Practice	CRTTpractice	tank.jpg	5500	468	32	1	6	0	0	0
092323	12:15:00	1	Practice	CRTTpractice	deer.jpg	4500	534	37	1	7	0	0	0
092323	12:15:00	1	Practice	CRTTpractice	tank.jpg	4000	482	32	1	8	0	0	0
092323	12:15:00	1	Practice	CRTTpractice	tank.jpg	5500	491	32	1	9	0	0	0
092323	12:15:00	1	Practice	CRTTpractice	deer.jpg	5000	456	32	0	8	0	0	0
092323	12:15:00	1	Practice	CRTTpractice	deer.jpg	6000	565	37	1	9	0	0	0
092323	12:15:00	1	Practice	CRTTpractice	tank.jpg	5500	491	32	1	10	0	0	0
092323	12:15:00	1	Practice	CRTTpractice	deer.jpg	4000	449	37	1	11	0	0	0
092323	12:15:00	1	Practice	CRTTpractice	tank.jpg	5500	379	32	1	12	0	0	0
092323	12:15:00	1	Practice	CRTTpractice	tank.jpg	4500	417	32	1	13	0	0	0
092323	12:15:00	1	Practice	CRTTpractice	deer.jpg	4000	714	37	1	14	0	0	0
092323	12:15:00	1	Practice	CRTTpractice	deer.jpg	5000	525	37	1	15	0	0	0
092323	12:15:00	1	Practice	CRTTpractice	tank.jpg	5500	549	32	1	16	0	0	0
092323	12:15:00	1	Practice	CRTTpractice	deer.jpg	4000	520	37	1	17	0	0	0
092323	12:15:00	1	Practice	CRTTpractice	tank.jpg	4500	544	32	1	18	0	0	0
092323	12:15:00	1	Practice	CRTTpractice	tank.jpg	5500	503	32	1	19	0	0	0
092323	12:15:00	1	Practice	CRTTpractice	deer.jpg	4500	536	37	1	20	0	0	0
092323	12:15:00	1	Practice	CRTTpractice	deer.jpg	4500	487	37	1	21	0	0	0
092323	12:15:00	1	Practice	CRTTpractice	tank.jpg	5500	408	32	1	22	0	0	0
092323	12:15:00	1	Practice	CRTTpractice	tank.jpg	4500	493	32	1	23	0	0	0
092323	12:15:00	1	Practice	CRTTpractice	deer.jpg	5500	486	37	1	24	0	0	0
092323	12:15:00	1	Practice	CRTTpractice	deer.jpg	4500	463	37	1	25	0	0	0
092323	12:15:00	1	Practice	CRTTpractice	tank.jpg	5000	381	32	1	26	0	0	0
092323	12:15:00	1	Practice	CRTTpractice	tank.jpg	5500	498	32	1	27	0	0	0
092323	12:15:00	1	Practice	CRTTpractice	deer.jpg	4500	443	37	1	28	0	0	0
092323	12:15:00	1	SST	CRTTstop	deer.jpg	5000	354	0	0	28	506	70	354,1999999999999886313
092323	12:15:00	1	SST	CRTTstop2	deer.jpg	5000	38	37	1	27	506	70	354,1999999999999886313
092323	12:15:00	1	SST	CRTT	tank.jpg	6000	516	32	1	28	506	70	354,1999999999999886313
092323	12:15:00	1	SST	CRTT	deer.jpg	5500	468	37	1	29	506	70	354,1999999999999886313
092323	12:15:00	1	SST	CRTT	tank.jpg	5000	489	32	1	30	506	70	354,1999999999999886313
092323	12:15:00	1	SST	CRTT	deer.jpg	6000	382	37	1	31	506	70	354,1999999999999886313
092323	12:15:00	1	SST	CRTT	tank.jpg	5500	474	32	1	32	506	70	354,1999999999999886313
092323	12:15:00	1	SST	CRTT	deer.jpg	4000	449	37	1	33	506	70	354,1999999999999886313
092323	12:15:00	1	SST	CRTT	tank.jpg	5000	400	32	1	34	506	70	354,1999999999999886313
092323	12:15:00	1	SST	CRTTstop	tank.jpg	5500	405	0	0	34	506	80	404,8000000000000113687
092323	12:15:00	1	SST	CRTTstop2	tank.jpg	5500	130	32	1	33	506	80	404,8000000000000113687
092323	12:15:00	1	SST	CRTT	deer.jpg	6000	485	37	1	34	506	80	404,8000000000000113687
092323	12:15:00	1	SST	CRTTstop	deer.jpg	5000	51	0	0	34	506	10	50,6000000000000014211
092323	12:15:00	1	SST	CRTTstop2	deer.jpg	5000	699	0	0	34	506	10	50,6000000000000014211
092323	12:15:00	1	SST	CRTT	tank.jpg	4350,6000000000003637979	472	32	1	35	506	10	50,6000000000000014211
092323	12:15:00	1	SST	CRTTstop	tank.jpg	5500	101	0	0	35	506	20	101,2000000000000028422
092323	12:15:00	1	SST	CRTTstop2	tank.jpg	5500	649	0	0	35	506	20	101,2000000000000028422
092323	12:15:00	1	SST	CRTT	deer.jpg	4901,1999999999998181011	536	37	1	36	506	20	101,2000000000000028422
092323	12:15:00	1	SST	CRTT	deer.jpg	6000	642	37	1	37	506	20	101,2000000000000028422
092323	12:15:00	1	SST	CRTT	tank.jpg	4500	470	32	1	38	506	20	101,2000000000000028422
092323	12:15:00	1	SST	CRTT	tank.jpg	6000	474	32	1	39	506	20	101,2000000000000028422
092323	12:15:00	1	SST	CRTTstop	deer.jpg	4000	101	0	0	39	506	20	101,2000000000000028422
092323	12:15:00	1	SST	CRTTstop2	deer.jpg	4000	649	0	0	39	506	20	101,2000000000000028422
092323	12:15:00	1	SST	CRTTstop	deer.jpg	3401,1999999999998181011	354	0	0	39	506	70	354,1999999999999886313
092323	12:15:00	1	SST	CRTTstop2	deer.jpg	3401,1999999999998181011	102	37	1	38	506	70	354,1999999999999886313
092323	12:15:00	1	SST	CRTTstop	tank.jpg	5000	51	0	0	38	506	10	50,6000000000000014211
092323	12:15:00	1	SST	CRTTstop2	tank.jpg	5000	699	0	0	38	506	10	50,6000000000000014211
092323	12:15:00	1	SST	CRTT	deer.jpg	3850,5999999999999090505	486	37	1	39	506	10	50,6000000000000014211
092323	12:15:00	1	SST	CRTTstop	tank.jpg	4000	405	0	0	39	506	80	404,8000000000000113687
092323	12:15:00	1	SST	CRTTstop2	tank.jpg	4000	106	32	1	38	506	80	404,8000000000000113687
092323	12:15:00	1	SST	CRTT	deer.jpg	5500	571	37	1	39	506	80	404,8000000000000113687
092323	12:15:00	1	SST	CRTT	tank.jpg	5000	421	32	1	40	506	80	404,8000000000000113687
092323	12:15:00	1	SST	CRTT	tank.jpg	6000	571	32	1	41	506	80	404,8000000000000113687
092323	12:15:00	1	SST	CRTT	deer.jpg	5000	533	37	1	42	506	80	404,8000000000000113687
092323	12:15:00	1	SST	CRTT	deer.jpg	5500	524	37	1	43	506	80	404,8000000000000113687
092323	12:15:00	1	SST	CRTTstop	tank.jpg	5500	354	0	0	43	506	70	354,1999999999999886313
092323	12:15:00	1	SST	CRTTstop2	tank.jpg	5500	196	32	1	42	506	70	354,1999999999999886313
092323	12:15:00	1	SST	CRTTstop	tank.jpg	5000	101	0	0	42	506	20	101,2000000000000028422
092323	12:15:00	1	SST	CRTTstop2	tank.jpg	5000	649	0	0	42	506	20	101,2000000000000028422
092323	12:15:00	1	SST	CRTT	deer.jpg	3901,1999999999998181011	533	37	1	43	506	20	101,2000000000000028422
092323	12:15:00	1	SST	CRTT	deer.jpg	4000	554	37	1	44	506	20	101,2000000000000028422
092323	12:15:00	1	SST	CRTTstop	tank.jpg	6000	405	0	0	44	506	80	404,8000000000000113687
092323	12:15:00	1	SST	CRTTstop2	tank.jpg	6000	345	0	0	44	506	80	404,8000000000000113687
092323	12:15:00	1	SST	CRTTstop	deer.jpg	5204,8000000000001818989	51	0	0	44	506	10	50,6000000000000014211
092323	12:15:00	1	SST	CRTTstop2	deer.jpg	5204,8000000000001818989	699	0	0	44	506	10	50,6000000000000014211
092323	12:15:00	1	SST	CRTT	tank.jpg	3350,5999999999999090505	628	32	1	45	506	10	50,6000000000000014211
092323	12:15:00	1	SST	CRTT	deer.jpg	4000	533	37	1	46	506	10	50,6000000000000014211
092323	12:15:00	1	SST	CRTT	tank.jpg	6000	631	32	1	47	506	10	50,6000000000000014211
092323	12:15:00	1	SST	CRTT	deer.jpg	5000	686	37	1	48	506	10	50,6000000000000014211
092323	12:15:00	1	SST	CRTTstop	tank.jpg	4500	51	0	0	48	506	10	50,6000000000000014211
092323	12:15:00	1	SST	CRTTstop2	tank.jpg	4500	699	0	0	48	506	10	50,6000000000000014211
092323	12:15:00	1	SST	CRTTstop	deer.jpg	4350,6000000000003637979	354	0	0	48	506	70	354,1999999999999886313
092323	12:15:00	1	SST	CRTTstop2	deer.jpg	4350,6000000000003637979	396	0	0	48	506	70	354,1999999999999886313
092323	12:15:00	1	SST	CRTT	tank.jpg	5154,1999999999998181011	610	32	1	49	506	70	354,1999999999999886313
092323	12:15:00	1	SST	CRTT	tank.jpg	5000	699	32	1	50	506	70	354,1999999999999886313
092323	12:15:00	1	SST	CRTT	deer.jpg	6000	630	37	1	51	506	70	354,1999999999999886313
092323	12:15:00	1	SST	CRTT	tank.jpg	6000	637	32	1	52	506	70	354,1999999999999886313
092323	12:15:00	1	SST	CRTT	deer.jpg	4000	725	37	1	53	506	70	354,1999999999999886313
092323	12:15:00	1	SST	CRTT	deer.jpg	4500	564	37	1	54	506	70	354,1999999999999886313
092323	12:15:00	1	SST	CRTTstop	tank.jpg	6000	405	0	0	54	506	80	404,8000000000000113687
092323	12:15:00	1	SST	CRTTstop2	tank.jpg	6000	156	32	1	53	506	80	404,8000000000000113687
092323	12:15:00	1	SST	CRTTstop	tank.jpg	5000	101	0	0	53	506	20	101,2000000000000028422
092323	12:15:00	1	SST	CRTTstop2	tank.jpg	5000	649	0	0	53	506	20	101,2000000000000028422
092323	12:15:00	1	SST	CRTTstop	deer.jpg	5401,1999999999998181011	354	0	0	53	506	70	354,1999999999999886313
092323	12:15:00	1	SST	CRTTstop2	deer.jpg	5401,1999999999998181011	258	37	1	52	506	70	354,1999999999999886313
092323	12:15:00	1	SST	CRTT	deer.jpg	4500	750	0	0	51	506	70	354,1999999999999886313
092323	12:15:00	1	SST	CRTTstop	tank.jpg	6000	405	0	0	51	506	80	404,8000000000000113687
092323	12:15:00	1	SST	CRTTstop2	tank.jpg	6000	345	0	0	51	506	80	404,8000000000000113687
092323	12:15:00	1	SST	CRTT	deer.jpg	3704,8000000000001818989	727	37	1	52	506	80	404,8000000000000113687
092323	12:15:00	1	SST	CRTT	tank.jpg	5000	682	32	1	53	506	80	404,8000000000000113687
092323	12:15:00	1	SST	CRTTstop	tank.jpg	4000	101	0	0	53	506	20	101,2000000000000028422
092323	12:15:00	1	SST	CRTTstop2	tank.jpg	4000	649	0	0	53	506	20	101,2000000000000028422
092323	12:15:00	1	SST	CRTT	deer.jpg	3401,1999999999998181011	677	37	1	54	506	20	101,2000000000000028422
092323	12:15:00	1	SST	CRTTstop	tank.jpg	4000	51	0	0	54	506	10	50,6000000000000014211
092323	12:15:00	1	SST	CRTTstop2	tank.jpg	4000	699	0	0	54	506	10	50,6000000000000014211
092323	12:15:00	1	SST	CRTT	deer.jpg	3350,5999999999999090505	738	37	1	55	506	10	50,6000000000000014211
092323	12:15:00	1	SST	CRTT	deer.jpg	6000	724	37	1	56	506	10	50,6000000000000014211
092323	12:15:00	1	SST	CRTT	tank.jpg	4500	692	32	1	57	506	10	50,6000000000000014211
092323	12:15:00	1	SST	CRTTstop	tank.jpg	6000	354	0	0	57	506	70	354,1999999999999886313
092323	12:15:00	1	SST	CRTTstop2	tank.jpg	6000	396	0	0	57	506	70	354,1999999999999886313
092323	12:15:00	1	SST	CRTT	deer.jpg	5154,1999999999998181011	669	37	1	58	506	70	354,1999999999999886313
092323	12:15:00	1	SST	CRTTstop	deer.jpg	4500	101	0	0	58	506	20	101,2000000000000028422
092323	12:15:00	1	SST	CRTTstop2	deer.jpg	4500	649	0	0	58	506	20	101,2000000000000028422
092323	12:15:00	1	SST	CRTT	tank.jpg	5401,1999999999998181011	609	32	1	59	506	20	101,2000000000000028422
092323	12:15:00	1	SST	CRTT	deer.jpg	5500	645	37	1	60	506	20	101,2000000000000028422
092323	12:15:00	1	SST	CRTT	tank.jpg	5500	720	32	1	61	506	20	101,2000000000000028422
092323	12:15:00	1	SST	CRTT	tank.jpg	6000	674	32	1	62	506	20	101,2000000000000028422
092323	12:15:00	1	SST	CRTT	deer.jpg	4500	700	37	1	63	506	20	101,2000000000000028422
092323	12:15:00	1	SST	CRTTstop	deer.jpg	6000	405	0	0	63	506	80	404,8000000000000113687
092323	12:15:00	1	SST	CRTTstop2	deer.jpg	6000	345	0	0	63	506	80	404,8000000000000113687
092323	12:15:00	1	SST	CRTT	tank.jpg	4704,8000000000001818989	599	32	1	64	506	80	404,8000000000000113687
092323	12:15:00	1	SST	CRTT	tank.jpg	5000	687	32	1	65	506	80	404,8000000000000113687
092323	12:15:00	1	SST	CRTT	deer.jpg	5500	671	37	1	66	506	80	404,8000000000000113687
092323	12:15:00	1	SST	CRTTstop	tank.jpg	5500	51	0	0	66	506	10	50,6000000000000014211
092323	12:15:00	1	SST	CRTTstop2	tank.jpg	5500	699	0	0	66	506	10	50,6000000000000014211
092323	12:15:00	1	SST	CRTTstop	deer.jpg	3850,5999999999999090505	51	0	0	66	506	10	50,6000000000000014211
092323	12:15:00	1	SST	CRTTstop2	deer.jpg	3850,5999999999999090505	699	0	0	66	506	10	50,6000000000000014211
092323	12:15:00	1	SST	CRTT	deer.jpg	4850,6000000000003637979	684	37	1	67	506	10	50,6000000000000014211
092323	12:15:00	1	SST	CRTT	tank.jpg	4500	701	32	1	68	506	10	50,6000000000000014211
092323	12:15:00	1	SST	CRTT	deer.jpg	4000	658	37	1	69	506	10	50,6000000000000014211
092323	12:15:00	1	SST	CRTTstop	tank.jpg	5500	405	0	0	69	506	80	404,8000000000000113687
092323	12:15:00	1	SST	CRTTstop2	tank.jpg	5500	345	0	0	69	506	80	404,8000000000000113687
092323	12:15:00	1	SST	CRTTstop	tank.jpg	4704,8000000000001818989	354	0	0	69	506	70	354,1999999999999886313
092323	12:15:00	1	SST	CRTTstop2	tank.jpg	4704,8000000000001818989	396	0	0	69	506	70	354,1999999999999886313
092323	12:15:00	1	SST	CRTT	deer.jpg	4654,1999999999998181011	660	37	1	70	506	70	354,1999999999999886313
092323	12:15:00	1	SST	CRTTstop	deer.jpg	5000	101	0	0	70	506	20	101,2000000000000028422
092323	12:15:00	1	SST	CRTTstop2	deer.jpg	5000	649	0	0	70	506	20	101,2000000000000028422
092323	12:15:00	1	SST	CRTT	tank.jpg	5401,1999999999998181011	750	0	0	69	506	20	101,2000000000000028422
092323	12:15:00	1	SST	CRTTstop	tank.jpg	5000	354	0	0	69	506	70	354,1999999999999886313
092323	12:15:00	1	SST	CRTTstop2	tank.jpg	5000	396	0	0	69	506	70	354,1999999999999886313
092323	12:15:00	1	SST	CRTT	deer.jpg	5154,1999999999998181011	611	37	1	70	506	70	354,1999999999999886313
092323	12:15:00	1	SST	CRTTstop	deer.jpg	6000	101	0	0	70	506	20	101,2000000000000028422
092323	12:15:00	1	SST	CRTTstop2	deer.jpg	6000	649	0	0	70	506	20	101,2000000000000028422
092323	12:15:00	1	SST	CRTT	tank.jpg	3401,1999999999998181011	704	32	1	71	506	20	101,2000000000000028422
092323	12:15:00	1	SST	CRTT	tank.jpg	4000	685	32	1	72	506	20	101,2000000000000028422
092323	12:15:00	1	SST	CRTT	deer.jpg	5500	549	37	1	73	506	20	101,2000000000000028422
092323	12:15:00	1	SST	CRTTstop	tank.jpg	5000	405	0	0	73	506	80	404,8000000000000113687
092323	12:15:00	1	SST	CRTTstop2	tank.jpg	5000	110	32	1	72	506	80	404,8000000000000113687
092323	12:15:00	1	SST	CRTTstop	deer.jpg	5500	51	0	0	72	506	10	50,6000000000000014211
092323	12:15:00	1	SST	CRTTstop2	deer.jpg	5500	699	0	0	72	506	10	50,6000000000000014211
092323	12:15:00	1	SST	CRTTstop	tank.jpg	4350,6000000000003637979	354	0	0	72	506	70	354,1999999999999886313
092323	12:15:00	1	SST	CRTTstop2	tank.jpg	4350,6000000000003637979	396	0	0	72	506	70	354,1999999999999886313
092323	12:15:00	1	SST	CRTT	deer.jpg	5154,1999999999998181011	633	37	1	73	506	70	354,1999999999999886313
092323	12:15:00	1	SST	CRTT	deer.jpg	5000	648	37	1	74	506	70	354,1999999999999886313
092323	12:15:00	1	SST	CRTT	tank.jpg	4000	750	0	0	73	506	70	354,1999999999999886313
092323	12:15:00	1	SST	CRTT	deer.jpg	4000	507	37	1	74	506	70	354,1999999999999886313
092323	12:15:00	1	SST	CRTT	tank.jpg	5500	547	32	1	75	506	70	354,1999999999999886313
092323	12:15:00	1	SST	CRTT	tank.jpg	4500	586	32	1	76	506	70	354,1999999999999886313
092323	12:15:00	1	SST	CRTTstop	deer.jpg	5500	101	0	0	76	506	20	101,2000000000000028422
092323	12:15:00	1	SST	CRTTstop2	deer.jpg	5500	649	0	0	76	506	20	101,2000000000000028422
092323	12:15:00	1	SST	CRTT	deer.jpg	3401,1999999999998181011	618	37	1	77	506	20	101,2000000000000028422
