date	time	subject	blockcode	trialcode	picture.target.currentitem	values.stiminterval	latency	response	correct	values.score	values.AverageRTpractice	values.SSDcoeffitient	values.SSD
061923	17:18:48	1	Practice	CRTTpractice	tank.jpg	4500	629	32	1	1	0	0	0
061923	17:18:48	1	Practice	CRTTpractice	deer.jpg	6000	750	0	0	0	0	0	0
061923	17:18:48	1	Practice	CRTTpractice	deer.jpg	6000	484	37	1	1	0	0	0
061923	17:18:48	1	Practice	CRTTpractice	tank.jpg	6000	416	32	1	2	0	0	0
061923	17:18:48	1	Practice	CRTTpractice	tank.jpg	4500	580	32	1	3	0	0	0
061923	17:18:48	1	Practice	CRTTpractice	deer.jpg	6000	676	37	1	4	0	0	0
061923	17:18:48	1	Practice	CRTTpractice	tank.jpg	4000	587	32	1	5	0	0	0
061923	17:18:48	1	Practice	CRTTpractice	deer.jpg	5500	584	37	1	6	0	0	0
061923	17:18:48	1	Practice	CRTTpractice	tank.jpg	4000	522	32	1	7	0	0	0
061923	17:18:48	1	Practice	CRTTpractice	deer.jpg	4500	562	37	1	8	0	0	0
061923	17:18:48	1	Practice	CRTTpractice	deer.jpg	5500	504	37	1	9	0	0	0
061923	17:18:48	1	Practice	CRTTpractice	tank.jpg	6000	467	32	1	10	0	0	0
061923	17:18:48	1	Practice	CRTTpractice	deer.jpg	4000	498	37	1	11	0	0	0
061923	17:18:48	1	Practice	CRTTpractice	tank.jpg	4500	403	32	1	12	0	0	0
061923	17:18:48	1	Practice	CRTTpractice	tank.jpg	4500	400	32	1	13	0	0	0
061923	17:18:48	1	Practice	CRTTpractice	deer.jpg	4000	529	37	1	14	0	0	0
061923	17:18:48	1	Practice	CRTTpractice	deer.jpg	5500	457	37	1	15	0	0	0
061923	17:18:48	1	Practice	CRTTpractice	tank.jpg	5500	507	32	1	16	0	0	0
061923	17:18:48	1	Practice	CRTTpractice	deer.jpg	6000	518	37	1	17	0	0	0
061923	17:18:48	1	Practice	CRTTpractice	tank.jpg	6000	361	32	1	18	0	0	0
061923	17:18:48	1	Practice	CRTTpractice	deer.jpg	4000	533	37	1	19	0	0	0
061923	17:18:48	1	Practice	CRTTpractice	tank.jpg	6000	375	32	1	20	0	0	0
061923	17:18:48	1	Practice	CRTTpractice	deer.jpg	5500	452	37	1	21	0	0	0
061923	17:18:48	1	Practice	CRTTpractice	tank.jpg	5500	358	32	1	22	0	0	0
061923	17:18:48	1	Practice	CRTTpractice	deer.jpg	5000	369	37	1	23	0	0	0
061923	17:18:48	1	Practice	CRTTpractice	tank.jpg	6000	337	32	1	24	0	0	0
061923	17:18:48	1	Practice	CRTTpractice	tank.jpg	5500	552	32	1	25	0	0	0
061923	17:18:48	1	Practice	CRTTpractice	deer.jpg	5500	470	37	1	26	0	0	0
061923	17:18:48	1	Practice	CRTTpractice	tank.jpg	5500	472	32	1	27	0	0	0
061923	17:18:48	1	Practice	CRTTpractice	deer.jpg	4500	434	37	1	28	0	0	0
061923	17:18:48	1	SST	CRTT	tank.jpg	5500	458	32	1	29	493	0	0
061923	17:18:48	1	SST	CRTTstop	deer.jpg	4000	49	0	0	29	493	10	49,3000000000000042633
061923	17:18:48	1	SST	CRTTstop2	deer.jpg	4000	701	0	0	29	493	10	49,3000000000000042633
061923	17:18:48	1	SST	CRTT	tank.jpg	4349,3000000000001818989	399	32	1	30	493	10	49,3000000000000042633
061923	17:18:48	1	SST	CRTT	deer.jpg	5500	619	37	1	31	493	10	49,3000000000000042633
061923	17:18:48	1	SST	CRTT	deer.jpg	6000	506	37	1	32	493	10	49,3000000000000042633
061923	17:18:48	1	SST	CRTT	tank.jpg	6000	469	32	1	33	493	10	49,3000000000000042633
061923	17:18:48	1	SST	CRTTstop	deer.jpg	5000	394	0	0	33	493	80	394,4000000000000341061
061923	17:18:48	1	SST	CRTTstop2	deer.jpg	5000	99	37	1	32	493	80	394,4000000000000341061
061923	17:18:48	1	SST	CRTTstop	tank.jpg	5000	345	0	0	32	493	70	345,1000000000000227374
061923	17:18:48	1	SST	CRTTstop2	tank.jpg	5000	169	32	1	31	493	70	345,1000000000000227374
061923	17:18:48	1	SST	CRTT	tank.jpg	6000	482	32	1	32	493	70	345,1000000000000227374
061923	17:18:48	1	SST	CRTTstop	deer.jpg	5500	99	0	0	32	493	20	98,6000000000000085265
061923	17:18:48	1	SST	CRTTstop2	deer.jpg	5500	651	0	0	32	493	20	98,6000000000000085265
061923	17:18:48	1	SST	CRTT	tank.jpg	5398,6000000000003637979	469	32	1	33	493	20	98,6000000000000085265
061923	17:18:48	1	SST	CRTT	deer.jpg	4000	532	37	1	34	493	20	98,6000000000000085265
061923	17:18:48	1	SST	CRTT	tank.jpg	5000	431	32	1	35	493	20	98,6000000000000085265
061923	17:18:48	1	SST	CRTT	deer.jpg	4000	479	37	1	36	493	20	98,6000000000000085265
061923	17:18:48	1	SST	CRTTstop	deer.jpg	4000	99	0	0	36	493	20	98,6000000000000085265
061923	17:18:48	1	SST	CRTTstop2	deer.jpg	4000	417	37	1	35	493	20	98,6000000000000085265
061923	17:18:48	1	SST	CRTT	tank.jpg	5000	537	32	1	36	493	20	98,6000000000000085265
061923	17:18:48	1	SST	CRTTstop	tank.jpg	5500	49	0	0	36	493	10	49,3000000000000042633
061923	17:18:48	1	SST	CRTTstop2	tank.jpg	5500	701	0	0	36	493	10	49,3000000000000042633
061923	17:18:48	1	SST	CRTT	deer.jpg	5349,3000000000001818989	524	37	1	37	493	10	49,3000000000000042633
061923	17:18:48	1	SST	CRTTstop	tank.jpg	6000	345	0	0	37	493	70	345,1000000000000227374
061923	17:18:48	1	SST	CRTTstop2	tank.jpg	6000	153	32	1	36	493	70	345,1000000000000227374
061923	17:18:48	1	SST	CRTT	deer.jpg	5000	564	37	1	37	493	70	345,1000000000000227374
061923	17:18:48	1	SST	CRTT	tank.jpg	6000	501	32	1	38	493	70	345,1000000000000227374
061923	17:18:48	1	SST	CRTT	deer.jpg	6000	552	37	1	39	493	70	345,1000000000000227374
061923	17:18:48	1	SST	CRTT	tank.jpg	4000	540	32	1	40	493	70	345,1000000000000227374
061923	17:18:48	1	SST	CRTT	deer.jpg	5000	567	37	1	41	493	70	345,1000000000000227374
061923	17:18:48	1	SST	CRTTstop	tank.jpg	4000	394	0	0	41	493	80	394,4000000000000341061
061923	17:18:48	1	SST	CRTTstop2	tank.jpg	4000	81	32	1	40	493	80	394,4000000000000341061
061923	17:18:48	1	SST	CRTTstop	deer.jpg	5500	99	0	0	40	493	20	98,6000000000000085265
061923	17:18:48	1	SST	CRTTstop2	deer.jpg	5500	651	0	0	40	493	20	98,6000000000000085265
061923	17:18:48	1	SST	CRTTstop	deer.jpg	3898,5999999999999090505	345	0	0	40	493	70	345,1000000000000227374
061923	17:18:48	1	SST	CRTTstop2	deer.jpg	3898,5999999999999090505	204	37	1	39	493	70	345,1000000000000227374
061923	17:18:48	1	SST	CRTTstop	tank.jpg	5500	49	0	0	39	493	10	49,3000000000000042633
061923	17:18:48	1	SST	CRTTstop2	tank.jpg	5500	701	0	0	39	493	10	49,3000000000000042633
061923	17:18:48	1	SST	CRTT	deer.jpg	3849,3000000000001818989	546	37	1	40	493	10	49,3000000000000042633
061923	17:18:48	1	SST	CRTT	tank.jpg	6000	483	32	1	41	493	10	49,3000000000000042633
061923	17:18:48	1	SST	CRTT	tank.jpg	4500	461	32	1	42	493	10	49,3000000000000042633
061923	17:18:48	1	SST	CRTTstop	deer.jpg	4000	394	0	0	42	493	80	394,4000000000000341061
061923	17:18:48	1	SST	CRTTstop2	deer.jpg	4000	100	37	1	41	493	80	394,4000000000000341061
061923	17:18:48	1	SST	CRTT	tank.jpg	4500	526	32	1	42	493	80	394,4000000000000341061
061923	17:18:48	1	SST	CRTTstop	deer.jpg	5500	345	0	0	42	493	70	345,1000000000000227374
061923	17:18:48	1	SST	CRTTstop2	deer.jpg	5500	198	37	1	41	493	70	345,1000000000000227374
061923	17:18:48	1	SST	CRTT	tank.jpg	5000	503	32	1	42	493	70	345,1000000000000227374
061923	17:18:48	1	SST	CRTT	deer.jpg	6000	547	37	1	43	493	70	345,1000000000000227374
061923	17:18:48	1	SST	CRTT	tank.jpg	4500	409	32	1	44	493	70	345,1000000000000227374
061923	17:18:48	1	SST	CRTTstop	deer.jpg	6000	49	0	0	44	493	10	49,3000000000000042633
061923	17:18:48	1	SST	CRTTstop2	deer.jpg	6000	701	0	0	44	493	10	49,3000000000000042633
061923	17:18:48	1	SST	CRTT	tank.jpg	3849,3000000000001818989	411	32	1	45	493	10	49,3000000000000042633
061923	17:18:48	1	SST	CRTT	deer.jpg	5000	396	37	1	46	493	10	49,3000000000000042633
061923	17:18:48	1	SST	CRTT	tank.jpg	4000	429	32	1	47	493	10	49,3000000000000042633
061923	17:18:48	1	SST	CRTT	deer.jpg	5000	397	37	1	48	493	10	49,3000000000000042633
061923	17:18:48	1	SST	CRTT	tank.jpg	6000	382	32	1	49	493	10	49,3000000000000042633
061923	17:18:48	1	SST	CRTTstop	deer.jpg	6000	99	0	0	49	493	20	98,6000000000000085265
061923	17:18:48	1	SST	CRTTstop2	deer.jpg	6000	651	0	0	49	493	20	98,6000000000000085265
061923	17:18:48	1	SST	CRTT	deer.jpg	5398,6000000000003637979	657	37	1	50	493	20	98,6000000000000085265
061923	17:18:48	1	SST	CRTT	tank.jpg	5000	511	32	1	51	493	20	98,6000000000000085265
061923	17:18:48	1	SST	CRTT	deer.jpg	6000	491	37	1	52	493	20	98,6000000000000085265
061923	17:18:48	1	SST	CRTT	tank.jpg	4000	489	32	1	53	493	20	98,6000000000000085265
061923	17:18:48	1	SST	CRTT	tank.jpg	5500	545	32	1	54	493	20	98,6000000000000085265
061923	17:18:48	1	SST	CRTTstop	deer.jpg	6000	394	0	0	54	493	80	394,4000000000000341061
061923	17:18:48	1	SST	CRTTstop2	deer.jpg	6000	99	37	1	53	493	80	394,4000000000000341061
061923	17:18:48	1	SST	CRTTstop	tank.jpg	5000	99	0	0	53	493	20	98,6000000000000085265
061923	17:18:48	1	SST	CRTTstop2	tank.jpg	5000	651	0	0	53	493	20	98,6000000000000085265
061923	17:18:48	1	SST	CRTT	deer.jpg	3398,5999999999999090505	540	37	1	54	493	20	98,6000000000000085265
061923	17:18:48	1	SST	CRTT	tank.jpg	4000	329	32	1	55	493	20	98,6000000000000085265
061923	17:18:48	1	SST	CRTTstop	deer.jpg	4000	394	0	0	55	493	80	394,4000000000000341061
061923	17:18:48	1	SST	CRTTstop2	deer.jpg	4000	5	37	1	54	493	80	394,4000000000000341061
061923	17:18:48	1	SST	CRTTstop	deer.jpg	6000	49	0	0	54	493	10	49,3000000000000042633
061923	17:18:48	1	SST	CRTTstop2	deer.jpg	6000	701	0	0	54	493	10	49,3000000000000042633
061923	17:18:48	1	SST	CRTT	tank.jpg	4349,3000000000001818989	363	32	1	55	493	10	49,3000000000000042633
061923	17:18:48	1	SST	CRTTstop	deer.jpg	5000	345	0	0	55	493	70	345,1000000000000227374
061923	17:18:48	1	SST	CRTTstop2	deer.jpg	5000	150	37	1	54	493	70	345,1000000000000227374
061923	17:18:48	1	SST	CRTTstop	tank.jpg	5500	49	0	0	54	493	10	49,3000000000000042633
061923	17:18:48	1	SST	CRTTstop2	tank.jpg	5500	701	0	0	54	493	10	49,3000000000000042633
061923	17:18:48	1	SST	CRTT	tank.jpg	3349,3000000000001818989	572	32	1	55	493	10	49,3000000000000042633
061923	17:18:48	1	SST	CRTT	deer.jpg	4500	546	37	1	56	493	10	49,3000000000000042633
061923	17:18:48	1	SST	CRTT	tank.jpg	5500	368	32	1	57	493	10	49,3000000000000042633
061923	17:18:48	1	SST	CRTT	deer.jpg	6000	401	37	1	58	493	10	49,3000000000000042633
061923	17:18:48	1	SST	CRTT	deer.jpg	5000	490	37	1	59	493	10	49,3000000000000042633
061923	17:18:48	1	SST	CRTTstop	tank.jpg	5000	367	32	1	58	493	80	394,4000000000000341061
061923	17:18:48	1	SST	CRTT	tank.jpg	5000	417	32	1	59	493	80	394,4000000000000341061
061923	17:18:48	1	SST	CRTT	deer.jpg	4000	722	37	1	60	493	80	394,4000000000000341061
061923	17:18:48	1	SST	CRTT	deer.jpg	6000	564	37	1	61	493	80	394,4000000000000341061
061923	17:18:48	1	SST	CRTT	tank.jpg	5000	366	32	1	62	493	80	394,4000000000000341061
061923	17:18:48	1	SST	CRTTstop	deer.jpg	6000	99	0	0	62	493	20	98,6000000000000085265
061923	17:18:48	1	SST	CRTTstop2	deer.jpg	6000	299	37	1	61	493	20	98,6000000000000085265
061923	17:18:48	1	SST	CRTT	tank.jpg	5500	523	32	1	62	493	20	98,6000000000000085265
061923	17:18:48	1	SST	CRTTstop	deer.jpg	5000	345	0	0	62	493	70	345,1000000000000227374
061923	17:18:48	1	SST	CRTTstop2	deer.jpg	5000	241	37	1	61	493	70	345,1000000000000227374
061923	17:18:48	1	SST	CRTT	tank.jpg	4500	652	32	1	62	493	70	345,1000000000000227374
061923	17:18:48	1	SST	CRTTstop	tank.jpg	5000	394	0	0	62	493	80	394,4000000000000341061
061923	17:18:48	1	SST	CRTTstop2	tank.jpg	5000	170	32	1	61	493	80	394,4000000000000341061
061923	17:18:48	1	SST	CRTTstop	deer.jpg	5500	49	0	0	61	493	10	49,3000000000000042633
061923	17:18:48	1	SST	CRTTstop2	deer.jpg	5500	701	0	0	61	493	10	49,3000000000000042633
061923	17:18:48	1	SST	CRTTstop	deer.jpg	3349,3000000000001818989	99	0	0	61	493	20	98,6000000000000085265
061923	17:18:48	1	SST	CRTTstop2	deer.jpg	3349,3000000000001818989	651	0	0	61	493	20	98,6000000000000085265
061923	17:18:48	1	SST	CRTT	tank.jpg	4398,6000000000003637979	370	32	1	62	493	20	98,6000000000000085265
061923	17:18:48	1	SST	CRTT	deer.jpg	4500	368	37	1	63	493	20	98,6000000000000085265
061923	17:18:48	1	SST	CRTTstop	tank.jpg	6000	345	0	0	63	493	70	345,1000000000000227374
061923	17:18:48	1	SST	CRTTstop2	tank.jpg	6000	219	32	1	62	493	70	345,1000000000000227374
061923	17:18:48	1	SST	CRTT	deer.jpg	6000	750	0	0	61	493	70	345,1000000000000227374
061923	17:18:48	1	SST	CRTT	tank.jpg	6000	507	32	1	62	493	70	345,1000000000000227374
061923	17:18:48	1	SST	CRTT	tank.jpg	5500	491	32	1	63	493	70	345,1000000000000227374
061923	17:18:48	1	SST	CRTT	deer.jpg	4500	613	37	1	64	493	70	345,1000000000000227374
061923	17:18:48	1	SST	CRTT	deer.jpg	4000	445	37	1	65	493	70	345,1000000000000227374
061923	17:18:48	1	SST	CRTT	tank.jpg	4500	393	32	1	66	493	70	345,1000000000000227374
061923	17:18:48	1	SST	CRTTstop	tank.jpg	5500	345	0	0	66	493	70	345,1000000000000227374
061923	17:18:48	1	SST	CRTTstop2	tank.jpg	5500	279	32	1	65	493	70	345,1000000000000227374
061923	17:18:48	1	SST	CRTT	deer.jpg	5000	454	37	1	66	493	70	345,1000000000000227374
061923	17:18:48	1	SST	CRTT	deer.jpg	4500	440	37	1	67	493	70	345,1000000000000227374
061923	17:18:48	1	SST	CRTTstop	tank.jpg	5500	394	0	0	67	493	80	394,4000000000000341061
061923	17:18:48	1	SST	CRTTstop2	tank.jpg	5500	59	32	1	66	493	80	394,4000000000000341061
061923	17:18:48	1	SST	CRTT	deer.jpg	5000	530	37	1	67	493	80	394,4000000000000341061
061923	17:18:48	1	SST	CRTT	tank.jpg	4000	526	32	1	68	493	80	394,4000000000000341061
061923	17:18:48	1	SST	CRTTstop	tank.jpg	5000	99	0	0	68	493	20	98,6000000000000085265
061923	17:18:48	1	SST	CRTTstop2	tank.jpg	5000	651	0	0	68	493	20	98,6000000000000085265
061923	17:18:48	1	SST	CRTTstop	deer.jpg	5398,6000000000003637979	49	0	0	68	493	10	49,3000000000000042633
061923	17:18:48	1	SST	CRTTstop2	deer.jpg	5398,6000000000003637979	701	0	0	68	493	10	49,3000000000000042633
061923	17:18:48	1	SST	CRTT	tank.jpg	3849,3000000000001818989	470	32	1	69	493	10	49,3000000000000042633
061923	17:18:48	1	SST	CRTT	deer.jpg	6000	347	37	1	70	493	10	49,3000000000000042633
061923	17:18:48	1	SST	CRTTstop	tank.jpg	4500	99	0	0	70	493	20	98,6000000000000085265
061923	17:18:48	1	SST	CRTTstop2	tank.jpg	4500	651	0	0	70	493	20	98,6000000000000085265
061923	17:18:48	1	SST	CRTTstop	deer.jpg	3898,5999999999999090505	49	0	0	70	493	10	49,3000000000000042633
061923	17:18:48	1	SST	CRTTstop2	deer.jpg	3898,5999999999999090505	408	32	1	69	493	10	49,3000000000000042633
061923	17:18:48	1	SST	CRTTstop	tank.jpg	4500	394	0	0	69	493	80	394,4000000000000341061
061923	17:18:48	1	SST	CRTTstop2	tank.jpg	4500	188	32	1	68	493	80	394,4000000000000341061
061923	17:18:48	1	SST	CRTT	deer.jpg	6000	668	37	1	69	493	80	394,4000000000000341061
