date	time	subject	blockcode	trialcode	picture.target.currentitem	values.stiminterval	latency	response	correct	values.score	values.AverageRTpractice	values.SSDcoeffitient	values.SSD
092623	11:58:15	1	Practice	CRTTpractice	tank.jpg	6000	631	32	1	1	0	0	0
092623	11:58:15	1	Practice	CRTTpractice	deer.jpg	5500	618	37	1	2	0	0	0
092623	11:58:15	1	Practice	CRTTpractice	tank.jpg	5000	417	32	1	3	0	0	0
092623	11:58:15	1	Practice	CRTTpractice	deer.jpg	5500	500	37	1	4	0	0	0
092623	11:58:15	1	Practice	CRTTpractice	tank.jpg	5500	444	32	1	5	0	0	0
092623	11:58:15	1	Practice	CRTTpractice	deer.jpg	5000	604	37	1	6	0	0	0
092623	11:58:15	1	Practice	CRTTpractice	tank.jpg	6000	515	32	1	7	0	0	0
092623	11:58:15	1	Practice	CRTTpractice	deer.jpg	5000	502	37	1	8	0	0	0
092623	11:58:15	1	Practice	CRTTpractice	tank.jpg	4500	438	32	1	9	0	0	0
092623	11:58:15	1	Practice	CRTTpractice	deer.jpg	5000	477	37	1	10	0	0	0
092623	11:58:15	1	Practice	CRTTpractice	deer.jpg	5500	563	37	1	11	0	0	0
092623	11:58:15	1	Practice	CRTTpractice	tank.jpg	5000	542	32	1	12	0	0	0
092623	11:58:15	1	Practice	CRTTpractice	deer.jpg	5500	468	37	1	13	0	0	0
092623	11:58:15	1	Practice	CRTTpractice	tank.jpg	6000	569	32	1	14	0	0	0
092623	11:58:15	1	Practice	CRTTpractice	tank.jpg	6000	410	32	1	15	0	0	0
092623	11:58:15	1	Practice	CRTTpractice	deer.jpg	6000	506	37	1	16	0	0	0
092623	11:58:15	1	Practice	CRTTpractice	tank.jpg	6000	549	32	1	17	0	0	0
092623	11:58:15	1	Practice	CRTTpractice	deer.jpg	5500	507	37	1	18	0	0	0
092623	11:58:15	1	Practice	CRTTpractice	tank.jpg	5000	567	32	1	19	0	0	0
092623	11:58:15	1	Practice	CRTTpractice	deer.jpg	5500	413	37	1	20	0	0	0
092623	11:58:15	1	Practice	CRTTpractice	deer.jpg	4000	533	32	0	19	0	0	0
092623	11:58:15	1	Practice	CRTTpractice	tank.jpg	6000	575	32	1	20	0	0	0
092623	11:58:15	1	Practice	CRTTpractice	tank.jpg	6000	504	32	1	21	0	0	0
092623	11:58:15	1	Practice	CRTTpractice	deer.jpg	6000	484	37	1	22	0	0	0
092623	11:58:15	1	Practice	CRTTpractice	tank.jpg	4500	461	32	1	23	0	0	0
092623	11:58:15	1	Practice	CRTTpractice	deer.jpg	4500	424	37	1	24	0	0	0
092623	11:58:15	1	Practice	CRTTpractice	tank.jpg	4500	501	32	1	25	0	0	0
092623	11:58:15	1	Practice	CRTTpractice	deer.jpg	5000	353	37	1	26	0	0	0
092623	11:58:15	1	Practice	CRTTpractice	tank.jpg	6000	411	32	1	27	0	0	0
092623	11:58:15	1	Practice	CRTTpractice	deer.jpg	5500	439	37	1	28	0	0	0
092623	11:58:15	1	SST	CRTTstop	deer.jpg	4500	349	0	0	28	498	70	348,6000000000000227374
092623	11:58:15	1	SST	CRTTstop2	deer.jpg	4500	257	37	1	27	498	70	348,6000000000000227374
092623	11:58:15	1	SST	CRTTstop	tank.jpg	4500	398	0	0	27	498	80	398,4000000000000341061
092623	11:58:15	1	SST	CRTTstop2	tank.jpg	4500	228	32	1	26	498	80	398,4000000000000341061
092623	11:58:15	1	SST	CRTTstop	tank.jpg	4500	50	0	0	26	498	10	49,8000000000000042633
092623	11:58:15	1	SST	CRTTstop2	tank.jpg	4500	700	0	0	26	498	10	49,8000000000000042633
092623	11:58:15	1	SST	CRTT	deer.jpg	3849,8000000000001818989	482	37	1	27	498	10	49,8000000000000042633
092623	11:58:15	1	SST	CRTTstop	deer.jpg	6000	100	0	0	27	498	20	99,6000000000000085265
092623	11:58:15	1	SST	CRTTstop2	deer.jpg	6000	650	0	0	27	498	20	99,6000000000000085265
092623	11:58:15	1	SST	CRTT	tank.jpg	5399,6000000000003637979	456	32	1	28	498	20	99,6000000000000085265
092623	11:58:15	1	SST	CRTT	tank.jpg	4000	750	0	0	27	498	20	99,6000000000000085265
092623	11:58:15	1	SST	CRTT	deer.jpg	4500	750	0	0	26	498	20	99,6000000000000085265
092623	11:58:15	1	SST	CRTTstop	deer.jpg	6000	50	0	0	26	498	10	49,8000000000000042633
092623	11:58:15	1	SST	CRTTstop2	deer.jpg	6000	700	0	0	26	498	10	49,8000000000000042633
092623	11:58:15	1	SST	CRTT	tank.jpg	3349,8000000000001818989	750	0	0	25	498	10	49,8000000000000042633
092623	11:58:15	1	SST	CRTT	deer.jpg	4500	684	37	1	26	498	10	49,8000000000000042633
092623	11:58:15	1	SST	CRTTstop	tank.jpg	5000	398	0	0	26	498	80	398,4000000000000341061
092623	11:58:15	1	SST	CRTTstop2	tank.jpg	5000	32	32	1	25	498	80	398,4000000000000341061
092623	11:58:15	1	SST	CRTTstop	deer.jpg	6000	100	0	0	25	498	20	99,6000000000000085265
092623	11:58:15	1	SST	CRTTstop2	deer.jpg	6000	650	0	0	25	498	20	99,6000000000000085265
092623	11:58:15	1	SST	CRTT	tank.jpg	4899,6000000000003637979	549	32	1	26	498	20	99,6000000000000085265
092623	11:58:15	1	SST	CRTT	deer.jpg	5500	459	37	1	27	498	20	99,6000000000000085265
092623	11:58:15	1	SST	CRTT	tank.jpg	5500	629	32	1	28	498	20	99,6000000000000085265
092623	11:58:15	1	SST	CRTT	deer.jpg	5500	576	37	1	29	498	20	99,6000000000000085265
092623	11:58:15	1	SST	CRTT	tank.jpg	5000	578	32	1	30	498	20	99,6000000000000085265
092623	11:58:15	1	SST	CRTT	deer.jpg	5500	511	37	1	31	498	20	99,6000000000000085265
092623	11:58:15	1	SST	CRTT	tank.jpg	4500	560	32	1	32	498	20	99,6000000000000085265
092623	11:58:15	1	SST	CRTTstop	tank.jpg	5500	349	0	0	32	498	70	348,6000000000000227374
092623	11:58:15	1	SST	CRTTstop2	tank.jpg	5500	401	0	0	32	498	70	348,6000000000000227374
092623	11:58:15	1	SST	CRTT	deer.jpg	5648,6000000000003637979	750	0	0	31	498	70	348,6000000000000227374
092623	11:58:15	1	SST	CRTT	tank.jpg	4500	750	0	0	30	498	70	348,6000000000000227374
092623	11:58:15	1	SST	CRTT	deer.jpg	4000	616	37	1	31	498	70	348,6000000000000227374
092623	11:58:15	1	SST	CRTT	tank.jpg	6000	703	32	1	32	498	70	348,6000000000000227374
092623	11:58:15	1	SST	CRTTstop	deer.jpg	4000	349	0	0	32	498	70	348,6000000000000227374
092623	11:58:15	1	SST	CRTTstop2	deer.jpg	4000	325	37	1	31	498	70	348,6000000000000227374
092623	11:58:15	1	SST	CRTT	tank.jpg	4500	750	0	0	30	498	70	348,6000000000000227374
092623	11:58:15	1	SST	CRTT	deer.jpg	5500	750	0	0	29	498	70	348,6000000000000227374
092623	11:58:15	1	SST	CRTT	tank.jpg	4000	750	0	0	28	498	70	348,6000000000000227374
092623	11:58:15	1	SST	CRTTstop	deer.jpg	4000	50	0	0	28	498	10	49,8000000000000042633
092623	11:58:15	1	SST	CRTTstop2	deer.jpg	4000	700	0	0	28	498	10	49,8000000000000042633
092623	11:58:15	1	SST	CRTTstop	tank.jpg	4849,8000000000001818989	100	0	0	28	498	20	99,6000000000000085265
092623	11:58:15	1	SST	CRTTstop2	tank.jpg	4849,8000000000001818989	650	0	0	28	498	20	99,6000000000000085265
092623	11:58:15	1	SST	CRTT	deer.jpg	5399,6000000000003637979	509	37	1	29	498	20	99,6000000000000085265
092623	11:58:15	1	SST	CRTT	tank.jpg	5000	450	32	1	30	498	20	99,6000000000000085265
092623	11:58:15	1	SST	CRTTstop	deer.jpg	6000	398	0	0	30	498	80	398,4000000000000341061
092623	11:58:15	1	SST	CRTTstop2	deer.jpg	6000	14	37	1	29	498	80	398,4000000000000341061
092623	11:58:15	1	SST	CRTTstop	deer.jpg	4500	349	0	0	29	498	70	348,6000000000000227374
092623	11:58:15	1	SST	CRTTstop2	deer.jpg	4500	401	0	0	29	498	70	348,6000000000000227374
092623	11:58:15	1	SST	CRTTstop	tank.jpg	5648,6000000000003637979	398	0	0	29	498	80	398,4000000000000341061
092623	11:58:15	1	SST	CRTTstop2	tank.jpg	5648,6000000000003637979	352	0	0	29	498	80	398,4000000000000341061
092623	11:58:15	1	SST	CRTT	deer.jpg	3698,4000000000000909495	750	0	0	28	498	80	398,4000000000000341061
092623	11:58:15	1	SST	CRTT	tank.jpg	6000	693	32	1	29	498	80	398,4000000000000341061
092623	11:58:15	1	SST	CRTT	tank.jpg	4000	427	37	0	28	498	80	398,4000000000000341061
092623	11:58:15	1	SST	CRTT	deer.jpg	5000	750	0	0	27	498	80	398,4000000000000341061
092623	11:58:15	1	SST	CRTT	deer.jpg	5500	529	37	1	28	498	80	398,4000000000000341061
092623	11:58:15	1	SST	CRTTstop	tank.jpg	5500	100	0	0	28	498	20	99,6000000000000085265
092623	11:58:15	1	SST	CRTTstop2	tank.jpg	5500	650	0	0	28	498	20	99,6000000000000085265
092623	11:58:15	1	SST	CRTTstop	tank.jpg	4899,6000000000003637979	50	0	0	28	498	10	49,8000000000000042633
092623	11:58:15	1	SST	CRTTstop2	tank.jpg	4899,6000000000003637979	700	0	0	28	498	10	49,8000000000000042633
092623	11:58:15	1	SST	CRTTstop	deer.jpg	4849,8000000000001818989	50	0	0	28	498	10	49,8000000000000042633
092623	11:58:15	1	SST	CRTTstop2	deer.jpg	4849,8000000000001818989	700	0	0	28	498	10	49,8000000000000042633
092623	11:58:15	1	SST	CRTT	deer.jpg	4849,8000000000001818989	632	37	1	29	498	10	49,8000000000000042633
092623	11:58:15	1	SST	CRTT	tank.jpg	6000	646	32	1	30	498	10	49,8000000000000042633
092623	11:58:15	1	SST	CRTT	tank.jpg	6000	556	32	1	31	498	10	49,8000000000000042633
092623	11:58:15	1	SST	CRTT	deer.jpg	4500	603	37	1	32	498	10	49,8000000000000042633
092623	11:58:15	1	SST	CRTT	deer.jpg	4000	597	37	1	33	498	10	49,8000000000000042633
092623	11:58:15	1	SST	CRTT	tank.jpg	6000	396	37	0	32	498	10	49,8000000000000042633
092623	11:58:15	1	SST	CRTT	tank.jpg	6000	604	32	1	33	498	10	49,8000000000000042633
092623	11:58:15	1	SST	CRTTstop	deer.jpg	4000	349	0	0	33	498	70	348,6000000000000227374
092623	11:58:15	1	SST	CRTTstop2	deer.jpg	4000	232	37	1	32	498	70	348,6000000000000227374
092623	11:58:15	1	SST	CRTT	deer.jpg	4500	596	37	1	33	498	70	348,6000000000000227374
092623	11:58:15	1	SST	CRTT	tank.jpg	6000	524	32	1	34	498	70	348,6000000000000227374
092623	11:58:15	1	SST	CRTT	deer.jpg	6000	470	37	1	35	498	70	348,6000000000000227374
092623	11:58:15	1	SST	CRTTstop	tank.jpg	4500	100	0	0	35	498	20	99,6000000000000085265
092623	11:58:15	1	SST	CRTTstop2	tank.jpg	4500	650	0	0	35	498	20	99,6000000000000085265
092623	11:58:15	1	SST	CRTTstop	tank.jpg	3399,5999999999999090505	398	0	0	35	498	80	398,4000000000000341061
092623	11:58:15	1	SST	CRTTstop2	tank.jpg	3399,5999999999999090505	188	32	1	34	498	80	398,4000000000000341061
092623	11:58:15	1	SST	CRTT	deer.jpg	4500	498	37	1	35	498	80	398,4000000000000341061
092623	11:58:15	1	SST	CRTTstop	deer.jpg	5000	349	0	0	35	498	70	348,6000000000000227374
092623	11:58:15	1	SST	CRTTstop2	deer.jpg	5000	401	0	0	35	498	70	348,6000000000000227374
092623	11:58:15	1	SST	CRTT	tank.jpg	5648,6000000000003637979	479	32	1	36	498	70	348,6000000000000227374
092623	11:58:15	1	SST	CRTT	deer.jpg	5000	677	37	1	37	498	70	348,6000000000000227374
092623	11:58:15	1	SST	CRTT	tank.jpg	5000	682	32	1	38	498	70	348,6000000000000227374
092623	11:58:15	1	SST	CRTT	deer.jpg	6000	590	37	1	39	498	70	348,6000000000000227374
092623	11:58:15	1	SST	CRTT	tank.jpg	5500	547	32	1	40	498	70	348,6000000000000227374
092623	11:58:15	1	SST	CRTT	deer.jpg	5500	529	37	1	41	498	70	348,6000000000000227374
092623	11:58:15	1	SST	CRTT	tank.jpg	5000	533	32	1	42	498	70	348,6000000000000227374
092623	11:58:15	1	SST	CRTT	deer.jpg	4000	553	37	1	43	498	70	348,6000000000000227374
092623	11:58:15	1	SST	CRTT	tank.jpg	6000	459	32	1	44	498	70	348,6000000000000227374
092623	11:58:15	1	SST	CRTT	tank.jpg	5000	609	32	1	45	498	70	348,6000000000000227374
092623	11:58:15	1	SST	CRTTstop	deer.jpg	5000	50	0	0	45	498	10	49,8000000000000042633
092623	11:58:15	1	SST	CRTTstop2	deer.jpg	5000	700	0	0	45	498	10	49,8000000000000042633
092623	11:58:15	1	SST	CRTTstop	tank.jpg	5349,8000000000001818989	398	0	0	45	498	80	398,4000000000000341061
092623	11:58:15	1	SST	CRTTstop2	tank.jpg	5349,8000000000001818989	165	32	1	44	498	80	398,4000000000000341061
092623	11:58:15	1	SST	CRTT	deer.jpg	4000	750	0	0	43	498	80	398,4000000000000341061
092623	11:58:15	1	SST	CRTTstop	deer.jpg	5500	100	0	0	43	498	20	99,6000000000000085265
092623	11:58:15	1	SST	CRTTstop2	deer.jpg	5500	650	0	0	43	498	20	99,6000000000000085265
092623	11:58:15	1	SST	CRTTstop	tank.jpg	4899,6000000000003637979	50	0	0	43	498	10	49,8000000000000042633
092623	11:58:15	1	SST	CRTTstop2	tank.jpg	4899,6000000000003637979	700	0	0	43	498	10	49,8000000000000042633
092623	11:58:15	1	SST	CRTTstop	deer.jpg	3849,8000000000001818989	349	0	0	43	498	70	348,6000000000000227374
092623	11:58:15	1	SST	CRTTstop2	deer.jpg	3849,8000000000001818989	401	0	0	43	498	70	348,6000000000000227374
092623	11:58:15	1	SST	CRTT	tank.jpg	4648,6000000000003637979	551	32	1	44	498	70	348,6000000000000227374
092623	11:58:15	1	SST	CRTT	deer.jpg	5000	658	37	1	45	498	70	348,6000000000000227374
092623	11:58:15	1	SST	CRTTstop	tank.jpg	4000	398	0	0	45	498	80	398,4000000000000341061
092623	11:58:15	1	SST	CRTTstop2	tank.jpg	4000	177	32	1	44	498	80	398,4000000000000341061
092623	11:58:15	1	SST	CRTT	tank.jpg	5000	619	32	1	45	498	80	398,4000000000000341061
092623	11:58:15	1	SST	CRTTstop	deer.jpg	4000	100	0	0	45	498	20	99,6000000000000085265
092623	11:58:15	1	SST	CRTTstop2	deer.jpg	4000	650	0	0	45	498	20	99,6000000000000085265
092623	11:58:15	1	SST	CRTTstop	deer.jpg	5399,6000000000003637979	100	0	0	45	498	20	99,6000000000000085265
092623	11:58:15	1	SST	CRTTstop2	deer.jpg	5399,6000000000003637979	650	0	0	45	498	20	99,6000000000000085265
092623	11:58:15	1	SST	CRTT	tank.jpg	5399,6000000000003637979	664	32	1	46	498	20	99,6000000000000085265
092623	11:58:15	1	SST	CRTT	tank.jpg	4000	750	0	0	45	498	20	99,6000000000000085265
092623	11:58:15	1	SST	CRTTstop	deer.jpg	5500	349	0	0	45	498	70	348,6000000000000227374
092623	11:58:15	1	SST	CRTTstop2	deer.jpg	5500	286	37	1	44	498	70	348,6000000000000227374
092623	11:58:15	1	SST	CRTT	deer.jpg	5500	671	37	1	45	498	70	348,6000000000000227374
092623	11:58:15	1	SST	CRTT	tank.jpg	5000	701	32	1	46	498	70	348,6000000000000227374
092623	11:58:15	1	SST	CRTT	deer.jpg	5500	516	37	1	47	498	70	348,6000000000000227374
092623	11:58:15	1	SST	CRTT	tank.jpg	5000	472	32	1	48	498	70	348,6000000000000227374
092623	11:58:15	1	SST	CRTTstop	tank.jpg	6000	50	0	0	48	498	10	49,8000000000000042633
092623	11:58:15	1	SST	CRTTstop2	tank.jpg	6000	700	0	0	48	498	10	49,8000000000000042633
092623	11:58:15	1	SST	CRTTstop	deer.jpg	4349,8000000000001818989	398	0	0	48	498	80	398,4000000000000341061
092623	11:58:15	1	SST	CRTTstop2	deer.jpg	4349,8000000000001818989	170	37	1	47	498	80	398,4000000000000341061
092623	11:58:15	1	SST	CRTT	deer.jpg	4000	669	37	1	48	498	80	398,4000000000000341061
092623	11:58:15	1	SST	CRTT	tank.jpg	5500	502	32	1	49	498	80	398,4000000000000341061
092623	11:58:15	1	SST	CRTT	deer.jpg	5500	430	37	1	50	498	80	398,4000000000000341061
092623	11:58:15	1	SST	CRTTstop	tank.jpg	6000	50	0	0	50	498	10	49,8000000000000042633
092623	11:58:15	1	SST	CRTTstop2	tank.jpg	6000	700	0	0	50	498	10	49,8000000000000042633
092623	11:58:15	1	SST	CRTTstop	tank.jpg	4349,8000000000001818989	349	0	0	50	498	70	348,6000000000000227374
092623	11:58:15	1	SST	CRTTstop2	tank.jpg	4349,8000000000001818989	401	0	0	50	498	70	348,6000000000000227374
092623	11:58:15	1	SST	CRTT	deer.jpg	4648,6000000000003637979	750	0	0	49	498	70	348,6000000000000227374
