date	time	subject	blockcode	trialcode	picture.target.currentitem	values.stiminterval	latency	response	correct	values.score	values.AverageRTpractice	values.SSDcoeffitient	values.SSD
092923	12:59:25	1	Practice	CRTTpractice	tank.jpg	5000	750	0	0	-1	0	0	0
092923	12:59:25	1	Practice	CRTTpractice	deer.jpg	5500	750	0	0	-2	0	0	0
092923	12:59:25	1	Practice	CRTTpractice	tank.jpg	4000	750	0	0	-3	0	0	0
092923	12:59:25	1	Practice	CRTTpractice	deer.jpg	4000	750	0	0	-4	0	0	0
092923	12:59:25	1	Practice	CRTTpractice	tank.jpg	4000	750	0	0	-5	0	0	0
092923	12:59:25	1	Practice	CRTTpractice	deer.jpg	4000	750	0	0	-6	0	0	0
092923	12:59:25	1	Practice	CRTTpractice	deer.jpg	4000	645	37	1	-5	0	0	0
092923	12:59:25	1	Practice	CRTTpractice	tank.jpg	6000	750	0	0	-6	0	0	0
092923	12:59:25	1	Practice	CRTTpractice	deer.jpg	4500	750	0	0	-7	0	0	0
092923	12:59:25	1	Practice	CRTTpractice	tank.jpg	4000	485	32	1	-6	0	0	0
092923	12:59:25	1	Practice	CRTTpractice	tank.jpg	4500	718	32	1	-5	0	0	0
092923	12:59:25	1	Practice	CRTTpractice	deer.jpg	6000	609	37	1	-4	0	0	0
092923	12:59:25	1	Practice	CRTTpractice	tank.jpg	6000	600	32	1	-3	0	0	0
092923	12:59:25	1	Practice	CRTTpractice	deer.jpg	6000	583	37	1	-2	0	0	0
092923	12:59:25	1	Practice	CRTTpractice	tank.jpg	5500	556	32	1	-1	0	0	0
092923	12:59:25	1	Practice	CRTTpractice	deer.jpg	5000	478	37	1	0	0	0	0
092923	12:59:25	1	Practice	CRTTpractice	tank.jpg	6000	523	32	1	1	0	0	0
092923	12:59:25	1	Practice	CRTTpractice	deer.jpg	4000	592	37	1	2	0	0	0
092923	12:59:25	1	Practice	CRTTpractice	tank.jpg	5500	460	32	1	3	0	0	0
092923	12:59:25	1	Practice	CRTTpractice	deer.jpg	6000	594	37	1	4	0	0	0
092923	12:59:25	1	Practice	CRTTpractice	tank.jpg	4500	599	32	1	5	0	0	0
092923	12:59:25	1	Practice	CRTTpractice	deer.jpg	4000	425	37	1	6	0	0	0
092923	12:59:25	1	Practice	CRTTpractice	deer.jpg	4500	653	37	1	7	0	0	0
092923	12:59:25	1	Practice	CRTTpractice	tank.jpg	4500	600	32	1	8	0	0	0
092923	12:59:25	1	Practice	CRTTpractice	tank.jpg	5500	652	32	1	9	0	0	0
092923	12:59:25	1	Practice	CRTTpractice	deer.jpg	5500	541	37	1	10	0	0	0
092923	12:59:25	1	Practice	CRTTpractice	tank.jpg	5500	548	32	1	11	0	0	0
092923	12:59:25	1	Practice	CRTTpractice	deer.jpg	4500	579	37	1	12	0	0	0
092923	12:59:25	1	Practice	CRTTpractice	deer.jpg	4000	646	37	1	13	0	0	0
092923	12:59:25	1	Practice	CRTTpractice	tank.jpg	5000	589	32	1	14	0	0	0
092923	12:59:25	1	SST	CRTT	deer.jpg	5500	575	37	1	15	623	0	0
092923	12:59:25	1	SST	CRTT	tank.jpg	4500	582	32	1	16	623	0	0
092923	12:59:25	1	SST	CRTTstop	deer.jpg	6000	125	0	0	16	623	20	124,6000000000000085265
092923	12:59:25	1	SST	CRTTstop2	deer.jpg	6000	625	0	0	16	623	20	124,6000000000000085265
092923	12:59:25	1	SST	CRTT	tank.jpg	5424,6000000000003637979	695	32	1	17	623	20	124,6000000000000085265
092923	12:59:25	1	SST	CRTTstop	deer.jpg	6000	436	0	0	17	623	70	436,1000000000000227374
092923	12:59:25	1	SST	CRTTstop2	deer.jpg	6000	256	37	1	16	623	70	436,1000000000000227374
092923	12:59:25	1	SST	CRTTstop	tank.jpg	4000	62	0	0	16	623	10	62,3000000000000042633
092923	12:59:25	1	SST	CRTTstop2	tank.jpg	4000	688	0	0	16	623	10	62,3000000000000042633
092923	12:59:25	1	SST	CRTTstop	deer.jpg	3362,3000000000001818989	498	0	0	16	623	80	498,4000000000000341061
092923	12:59:25	1	SST	CRTTstop2	deer.jpg	3362,3000000000001818989	252	0	0	16	623	80	498,4000000000000341061
092923	12:59:25	1	SST	CRTT	tank.jpg	4798,3999999999996362021	750	0	0	15	623	80	498,4000000000000341061
092923	12:59:25	1	SST	CRTTstop	deer.jpg	6000	125	0	0	15	623	20	124,6000000000000085265
092923	12:59:25	1	SST	CRTTstop2	deer.jpg	6000	625	0	0	15	623	20	124,6000000000000085265
092923	12:59:25	1	SST	CRTT	tank.jpg	4924,6000000000003637979	697	32	1	16	623	20	124,6000000000000085265
092923	12:59:25	1	SST	CRTTstop	deer.jpg	5000	62	0	0	16	623	10	62,3000000000000042633
092923	12:59:25	1	SST	CRTTstop2	deer.jpg	5000	688	0	0	16	623	10	62,3000000000000042633
092923	12:59:25	1	SST	CRTT	tank.jpg	3362,3000000000001818989	750	0	0	15	623	10	62,3000000000000042633
092923	12:59:25	1	SST	CRTT	deer.jpg	5500	750	0	0	14	623	10	62,3000000000000042633
092923	12:59:25	1	SST	CRTT	tank.jpg	4500	505	32	1	15	623	10	62,3000000000000042633
092923	12:59:25	1	SST	CRTT	tank.jpg	4000	630	32	1	16	623	10	62,3000000000000042633
092923	12:59:25	1	SST	CRTT	deer.jpg	5500	601	37	1	17	623	10	62,3000000000000042633
092923	12:59:25	1	SST	CRTT	tank.jpg	4000	698	32	1	18	623	10	62,3000000000000042633
092923	12:59:25	1	SST	CRTT	deer.jpg	4000	583	37	1	19	623	10	62,3000000000000042633
092923	12:59:25	1	SST	CRTT	tank.jpg	4500	565	32	1	20	623	10	62,3000000000000042633
092923	12:59:25	1	SST	CRTTstop	deer.jpg	4000	436	0	0	20	623	70	436,1000000000000227374
092923	12:59:25	1	SST	CRTTstop2	deer.jpg	4000	133	37	1	19	623	70	436,1000000000000227374
092923	12:59:25	1	SST	CRTT	tank.jpg	4500	693	32	1	20	623	70	436,1000000000000227374
092923	12:59:25	1	SST	CRTT	deer.jpg	6000	577	37	1	21	623	70	436,1000000000000227374
092923	12:59:25	1	SST	CRTTstop	deer.jpg	5500	498	0	0	21	623	80	498,4000000000000341061
092923	12:59:25	1	SST	CRTTstop2	deer.jpg	5500	137	37	1	20	623	80	498,4000000000000341061
092923	12:59:25	1	SST	CRTTstop	tank.jpg	4500	436	0	0	20	623	70	436,1000000000000227374
092923	12:59:25	1	SST	CRTTstop2	tank.jpg	4500	314	0	0	20	623	70	436,1000000000000227374
092923	12:59:25	1	SST	CRTT	deer.jpg	5236,1000000000003637979	739	37	1	21	623	70	436,1000000000000227374
092923	12:59:25	1	SST	CRTTstop	tank.jpg	6000	498	0	0	21	623	80	498,4000000000000341061
092923	12:59:25	1	SST	CRTTstop2	tank.jpg	6000	224	32	1	20	623	80	498,4000000000000341061
092923	12:59:25	1	SST	CRTT	deer.jpg	6000	750	0	0	19	623	80	498,4000000000000341061
092923	12:59:25	1	SST	CRTTstop	tank.jpg	5500	125	0	0	19	623	20	124,6000000000000085265
092923	12:59:25	1	SST	CRTTstop2	tank.jpg	5500	625	0	0	19	623	20	124,6000000000000085265
092923	12:59:25	1	SST	CRTTstop	deer.jpg	4924,6000000000003637979	62	0	0	19	623	10	62,3000000000000042633
092923	12:59:25	1	SST	CRTTstop2	deer.jpg	4924,6000000000003637979	688	0	0	19	623	10	62,3000000000000042633
092923	12:59:25	1	SST	CRTT	tank.jpg	5362,3000000000001818989	655	32	1	20	623	10	62,3000000000000042633
092923	12:59:25	1	SST	CRTT	deer.jpg	4500	690	37	1	21	623	10	62,3000000000000042633
092923	12:59:25	1	SST	CRTT	tank.jpg	4000	672	32	1	22	623	10	62,3000000000000042633
092923	12:59:25	1	SST	CRTT	deer.jpg	4000	687	37	1	23	623	10	62,3000000000000042633
092923	12:59:25	1	SST	CRTT	tank.jpg	4500	616	32	1	24	623	10	62,3000000000000042633
092923	12:59:25	1	SST	CRTT	tank.jpg	5500	659	32	1	25	623	10	62,3000000000000042633
092923	12:59:25	1	SST	CRTT	deer.jpg	4000	750	0	0	24	623	10	62,3000000000000042633
092923	12:59:25	1	SST	CRTT	tank.jpg	6000	612	32	1	25	623	10	62,3000000000000042633
092923	12:59:25	1	SST	CRTTstop	deer.jpg	5000	125	0	0	25	623	20	124,6000000000000085265
092923	12:59:25	1	SST	CRTTstop2	deer.jpg	5000	625	0	0	25	623	20	124,6000000000000085265
092923	12:59:25	1	SST	CRTTstop	tank.jpg	3924,5999999999999090505	498	0	0	25	623	80	498,4000000000000341061
092923	12:59:25	1	SST	CRTTstop2	tank.jpg	3924,5999999999999090505	215	32	1	24	623	80	498,4000000000000341061
092923	12:59:25	1	SST	CRTT	deer.jpg	5000	750	0	0	23	623	80	498,4000000000000341061
092923	12:59:25	1	SST	CRTT	deer.jpg	4500	718	37	1	24	623	80	498,4000000000000341061
092923	12:59:25	1	SST	CRTTstop	tank.jpg	4000	62	0	0	24	623	10	62,3000000000000042633
092923	12:59:25	1	SST	CRTTstop2	tank.jpg	4000	688	0	0	24	623	10	62,3000000000000042633
092923	12:59:25	1	SST	CRTTstop	tank.jpg	5362,3000000000001818989	436	0	0	24	623	70	436,1000000000000227374
092923	12:59:25	1	SST	CRTTstop2	tank.jpg	5362,3000000000001818989	83	32	1	23	623	70	436,1000000000000227374
092923	12:59:25	1	SST	CRTT	deer.jpg	5000	649	37	1	24	623	70	436,1000000000000227374
092923	12:59:25	1	SST	CRTT	deer.jpg	6000	630	37	1	25	623	70	436,1000000000000227374
092923	12:59:25	1	SST	CRTT	tank.jpg	6000	750	0	0	24	623	70	436,1000000000000227374
092923	12:59:25	1	SST	CRTTstop	deer.jpg	5500	62	0	0	24	623	10	62,3000000000000042633
092923	12:59:25	1	SST	CRTTstop2	deer.jpg	5500	688	0	0	24	623	10	62,3000000000000042633
092923	12:59:25	1	SST	CRTTstop	tank.jpg	5362,3000000000001818989	498	0	0	24	623	80	498,4000000000000341061
092923	12:59:25	1	SST	CRTTstop2	tank.jpg	5362,3000000000001818989	114	32	1	23	623	80	498,4000000000000341061
092923	12:59:25	1	SST	CRTTstop	tank.jpg	5500	125	0	0	23	623	20	124,6000000000000085265
092923	12:59:25	1	SST	CRTTstop2	tank.jpg	5500	625	0	0	23	623	20	124,6000000000000085265
092923	12:59:25	1	SST	CRTT	deer.jpg	4924,6000000000003637979	664	37	1	24	623	20	124,6000000000000085265
092923	12:59:25	1	SST	CRTT	deer.jpg	4500	562	37	1	25	623	20	124,6000000000000085265
092923	12:59:25	1	SST	CRTT	tank.jpg	6000	644	32	1	26	623	20	124,6000000000000085265
092923	12:59:25	1	SST	CRTT	tank.jpg	4000	628	32	1	27	623	20	124,6000000000000085265
092923	12:59:25	1	SST	CRTTstop	deer.jpg	5000	436	0	0	27	623	70	436,1000000000000227374
092923	12:59:25	1	SST	CRTTstop2	deer.jpg	5000	97	37	1	26	623	70	436,1000000000000227374
092923	12:59:25	1	SST	CRTT	deer.jpg	5000	678	37	1	27	623	70	436,1000000000000227374
092923	12:59:25	1	SST	CRTTstop	tank.jpg	6000	62	0	0	27	623	10	62,3000000000000042633
092923	12:59:25	1	SST	CRTTstop2	tank.jpg	6000	688	0	0	27	623	10	62,3000000000000042633
092923	12:59:25	1	SST	CRTT	tank.jpg	4862,3000000000001818989	739	32	1	28	623	10	62,3000000000000042633
092923	12:59:25	1	SST	CRTT	deer.jpg	4000	750	0	0	27	623	10	62,3000000000000042633
092923	12:59:25	1	SST	CRTT	tank.jpg	6000	607	32	1	28	623	10	62,3000000000000042633
092923	12:59:25	1	SST	CRTT	deer.jpg	6000	703	37	1	29	623	10	62,3000000000000042633
092923	12:59:25	1	SST	CRTT	deer.jpg	5500	663	37	1	30	623	10	62,3000000000000042633
092923	12:59:25	1	SST	CRTT	tank.jpg	5000	557	32	1	31	623	10	62,3000000000000042633
092923	12:59:25	1	SST	CRTTstop	deer.jpg	5000	436	0	0	31	623	70	436,1000000000000227374
092923	12:59:25	1	SST	CRTTstop2	deer.jpg	5000	213	37	1	30	623	70	436,1000000000000227374
092923	12:59:25	1	SST	CRTT	tank.jpg	4500	750	0	0	29	623	70	436,1000000000000227374
092923	12:59:25	1	SST	CRTT	deer.jpg	4500	585	37	1	30	623	70	436,1000000000000227374
092923	12:59:25	1	SST	CRTT	tank.jpg	4500	703	32	1	31	623	70	436,1000000000000227374
092923	12:59:25	1	SST	CRTTstop	deer.jpg	5500	125	0	0	31	623	20	124,6000000000000085265
092923	12:59:25	1	SST	CRTTstop2	deer.jpg	5500	625	0	0	31	623	20	124,6000000000000085265
092923	12:59:25	1	SST	CRTT	tank.jpg	5424,6000000000003637979	750	0	0	30	623	20	124,6000000000000085265
092923	12:59:25	1	SST	CRTT	tank.jpg	5500	630	32	1	31	623	20	124,6000000000000085265
092923	12:59:25	1	SST	CRTTstop	deer.jpg	5000	498	0	0	31	623	80	498,4000000000000341061
092923	12:59:25	1	SST	CRTTstop2	deer.jpg	5000	145	37	1	30	623	80	498,4000000000000341061
092923	12:59:25	1	SST	CRTT	deer.jpg	5500	504	37	1	31	623	80	498,4000000000000341061
092923	12:59:25	1	SST	CRTT	tank.jpg	5500	712	32	1	32	623	80	498,4000000000000341061
092923	12:59:25	1	SST	CRTT	tank.jpg	4000	750	0	0	31	623	80	498,4000000000000341061
092923	12:59:25	1	SST	CRTTstop	deer.jpg	5500	125	0	0	31	623	20	124,6000000000000085265
092923	12:59:25	1	SST	CRTTstop2	deer.jpg	5500	625	0	0	31	623	20	124,6000000000000085265
092923	12:59:25	1	SST	CRTT	deer.jpg	4424,6000000000003637979	581	37	1	32	623	20	124,6000000000000085265
092923	12:59:25	1	SST	CRTTstop	tank.jpg	4000	436	0	0	32	623	70	436,1000000000000227374
092923	12:59:25	1	SST	CRTTstop2	tank.jpg	4000	197	32	1	31	623	70	436,1000000000000227374
092923	12:59:25	1	SST	CRTTstop	tank.jpg	5500	62	0	0	31	623	10	62,3000000000000042633
092923	12:59:25	1	SST	CRTTstop2	tank.jpg	5500	688	0	0	31	623	10	62,3000000000000042633
092923	12:59:25	1	SST	CRTT	deer.jpg	3362,3000000000001818989	728	37	1	32	623	10	62,3000000000000042633
092923	12:59:25	1	SST	CRTT	tank.jpg	4500	744	32	1	33	623	10	62,3000000000000042633
092923	12:59:25	1	SST	CRTTstop	deer.jpg	5500	498	0	0	33	623	80	498,4000000000000341061
092923	12:59:25	1	SST	CRTTstop2	deer.jpg	5500	250	37	1	32	623	80	498,4000000000000341061
092923	12:59:25	1	SST	CRTTstop	deer.jpg	4500	125	0	0	32	623	20	124,6000000000000085265
092923	12:59:25	1	SST	CRTTstop2	deer.jpg	4500	625	0	0	32	623	20	124,6000000000000085265
092923	12:59:25	1	SST	CRTTstop	tank.jpg	4424,6000000000003637979	436	0	0	32	623	70	436,1000000000000227374
092923	12:59:25	1	SST	CRTTstop2	tank.jpg	4424,6000000000003637979	150	32	1	31	623	70	436,1000000000000227374
092923	12:59:25	1	SST	CRTT	deer.jpg	5000	750	0	0	30	623	70	436,1000000000000227374
092923	12:59:25	1	SST	CRTT	tank.jpg	5000	739	32	1	31	623	70	436,1000000000000227374
092923	12:59:25	1	SST	CRTT	deer.jpg	4500	602	37	1	32	623	70	436,1000000000000227374
092923	12:59:25	1	SST	CRTT	tank.jpg	4500	591	32	1	33	623	70	436,1000000000000227374
092923	12:59:25	1	SST	CRTT	tank.jpg	5500	579	32	1	34	623	70	436,1000000000000227374
092923	12:59:25	1	SST	CRTTstop	deer.jpg	6000	62	0	0	34	623	10	62,3000000000000042633
092923	12:59:25	1	SST	CRTTstop2	deer.jpg	6000	688	0	0	34	623	10	62,3000000000000042633
092923	12:59:25	1	SST	CRTT	tank.jpg	5362,3000000000001818989	655	32	1	35	623	10	62,3000000000000042633
092923	12:59:25	1	SST	CRTTstop	deer.jpg	4000	498	0	0	35	623	80	498,4000000000000341061
092923	12:59:25	1	SST	CRTTstop2	deer.jpg	4000	252	0	0	35	623	80	498,4000000000000341061
092923	12:59:25	1	SST	CRTT	tank.jpg	4298,3999999999996362021	534	32	1	36	623	80	498,4000000000000341061
092923	12:59:25	1	SST	CRTTstop	deer.jpg	6000	62	0	0	36	623	10	62,3000000000000042633
092923	12:59:25	1	SST	CRTTstop2	deer.jpg	6000	688	0	0	36	623	10	62,3000000000000042633
092923	12:59:25	1	SST	CRTTstop	deer.jpg	3362,3000000000001818989	498	0	0	36	623	80	498,4000000000000341061
092923	12:59:25	1	SST	CRTTstop2	deer.jpg	3362,3000000000001818989	65	37	1	35	623	80	498,4000000000000341061
092923	12:59:25	1	SST	CRTT	tank.jpg	4000	750	0	0	34	623	80	498,4000000000000341061
092923	12:59:25	1	SST	CRTT	deer.jpg	6000	594	37	1	35	623	80	498,4000000000000341061
092923	12:59:25	1	SST	CRTT	tank.jpg	6000	730	32	1	36	623	80	498,4000000000000341061
