date	time	subject	blockcode	trialcode	picture.target.currentitem	values.stiminterval	latency	response	correct	values.score	values.AverageRTpractice	values.SSDcoeffitient	values.SSD
101523	12:57:58	1	Practice	CRTTpractice	tank.jpg	4000	750	0	0	-1	0	0	0
101523	12:57:58	1	Practice	CRTTpractice	deer.jpg	6000	587	37	1	0	0	0	0
101523	12:57:58	1	Practice	CRTTpractice	tank.jpg	4000	477	32	1	1	0	0	0
101523	12:57:58	1	Practice	CRTTpractice	deer.jpg	4500	431	37	1	2	0	0	0
101523	12:57:58	1	Practice	CRTTpractice	deer.jpg	5000	527	37	1	3	0	0	0
101523	12:57:58	1	Practice	CRTTpractice	tank.jpg	4000	459	37	0	2	0	0	0
101523	12:57:58	1	Practice	CRTTpractice	tank.jpg	4000	539	32	1	3	0	0	0
101523	12:57:58	1	Practice	CRTTpractice	deer.jpg	5500	553	37	1	4	0	0	0
101523	12:57:58	1	Practice	CRTTpractice	deer.jpg	4500	536	37	1	5	0	0	0
101523	12:57:58	1	Practice	CRTTpractice	tank.jpg	5000	523	32	1	6	0	0	0
101523	12:57:58	1	Practice	CRTTpractice	deer.jpg	4500	387	37	1	7	0	0	0
101523	12:57:58	1	Practice	CRTTpractice	tank.jpg	5500	448	32	1	8	0	0	0
101523	12:57:58	1	Practice	CRTTpractice	deer.jpg	5000	471	37	1	9	0	0	0
101523	12:57:58	1	Practice	CRTTpractice	tank.jpg	6000	524	32	1	10	0	0	0
101523	12:57:58	1	Practice	CRTTpractice	tank.jpg	4000	664	32	1	11	0	0	0
101523	12:57:58	1	Practice	CRTTpractice	deer.jpg	5500	562	37	1	12	0	0	0
101523	12:57:58	1	Practice	CRTTpractice	deer.jpg	5500	528	37	1	13	0	0	0
101523	12:57:58	1	Practice	CRTTpractice	tank.jpg	5000	596	32	1	14	0	0	0
101523	12:57:58	1	Practice	CRTTpractice	tank.jpg	5000	557	32	1	15	0	0	0
101523	12:57:58	1	Practice	CRTTpractice	deer.jpg	5000	591	37	1	16	0	0	0
101523	12:57:58	1	Practice	CRTTpractice	tank.jpg	5500	452	32	1	17	0	0	0
101523	12:57:58	1	Practice	CRTTpractice	deer.jpg	5500	390	37	1	18	0	0	0
101523	12:57:58	1	Practice	CRTTpractice	tank.jpg	5500	443	32	1	19	0	0	0
101523	12:57:58	1	Practice	CRTTpractice	deer.jpg	5000	465	37	1	20	0	0	0
101523	12:57:58	1	Practice	CRTTpractice	deer.jpg	4500	564	37	1	21	0	0	0
101523	12:57:58	1	Practice	CRTTpractice	tank.jpg	5000	367	32	1	22	0	0	0
101523	12:57:58	1	Practice	CRTTpractice	tank.jpg	6000	519	32	1	23	0	0	0
101523	12:57:58	1	Practice	CRTTpractice	deer.jpg	4500	456	37	1	24	0	0	0
101523	12:57:58	1	Practice	CRTTpractice	tank.jpg	4500	750	0	0	23	0	0	0
101523	12:57:58	1	Practice	CRTTpractice	deer.jpg	4000	502	37	1	24	0	0	0
101523	12:57:58	1	SST	CRTTstop	deer.jpg	4000	417	0	0	24	521	80	416,8000000000000113687
101523	12:57:58	1	SST	CRTTstop2	deer.jpg	4000	103	37	1	23	521	80	416,8000000000000113687
101523	12:57:58	1	SST	CRTT	tank.jpg	5000	531	32	1	24	521	80	416,8000000000000113687
101523	12:57:58	1	SST	CRTT	deer.jpg	6000	446	32	0	23	521	80	416,8000000000000113687
101523	12:57:58	1	SST	CRTT	tank.jpg	6000	612	32	1	24	521	80	416,8000000000000113687
101523	12:57:58	1	SST	CRTT	deer.jpg	4500	513	37	1	25	521	80	416,8000000000000113687
101523	12:57:58	1	SST	CRTTstop	tank.jpg	4000	104	0	0	25	521	20	104,2000000000000028422
101523	12:57:58	1	SST	CRTTstop2	tank.jpg	4000	646	0	0	25	521	20	104,2000000000000028422
101523	12:57:58	1	SST	CRTT	deer.jpg	3904,1999999999998181011	525	37	1	26	521	20	104,2000000000000028422
101523	12:57:58	1	SST	CRTTstop	tank.jpg	4000	365	0	0	26	521	70	364,6999999999999886313
101523	12:57:58	1	SST	CRTTstop2	tank.jpg	4000	187	32	1	25	521	70	364,6999999999999886313
101523	12:57:58	1	SST	CRTT	deer.jpg	6000	396	37	1	26	521	70	364,6999999999999886313
101523	12:57:58	1	SST	CRTTstop	tank.jpg	6000	52	0	0	26	521	10	52,1000000000000014211
101523	12:57:58	1	SST	CRTTstop2	tank.jpg	6000	698	0	0	26	521	10	52,1000000000000014211
101523	12:57:58	1	SST	CRTT	tank.jpg	4352,1000000000003637979	417	32	1	27	521	10	52,1000000000000014211
101523	12:57:58	1	SST	CRTTstop	deer.jpg	6000	417	0	0	27	521	80	416,8000000000000113687
101523	12:57:58	1	SST	CRTTstop2	deer.jpg	6000	110	37	1	26	521	80	416,8000000000000113687
101523	12:57:58	1	SST	CRTTstop	deer.jpg	4500	52	0	0	26	521	10	52,1000000000000014211
101523	12:57:58	1	SST	CRTTstop2	deer.jpg	4500	698	0	0	26	521	10	52,1000000000000014211
101523	12:57:58	1	SST	CRTTstop	tank.jpg	4852,1000000000003637979	104	0	0	26	521	20	104,2000000000000028422
101523	12:57:58	1	SST	CRTTstop2	tank.jpg	4852,1000000000003637979	646	0	0	26	521	20	104,2000000000000028422
101523	12:57:58	1	SST	CRTT	deer.jpg	4404,1999999999998181011	556	37	1	27	521	20	104,2000000000000028422
101523	12:57:58	1	SST	CRTT	tank.jpg	4000	512	32	1	28	521	20	104,2000000000000028422
101523	12:57:58	1	SST	CRTT	tank.jpg	4500	750	0	0	27	521	20	104,2000000000000028422
101523	12:57:58	1	SST	CRTT	deer.jpg	4000	548	37	1	28	521	20	104,2000000000000028422
101523	12:57:58	1	SST	CRTT	deer.jpg	4500	531	37	1	29	521	20	104,2000000000000028422
101523	12:57:58	1	SST	CRTT	tank.jpg	4000	527	32	1	30	521	20	104,2000000000000028422
101523	12:57:58	1	SST	CRTTstop	deer.jpg	5000	365	0	0	30	521	70	364,6999999999999886313
101523	12:57:58	1	SST	CRTTstop2	deer.jpg	5000	179	37	1	29	521	70	364,6999999999999886313
101523	12:57:58	1	SST	CRTT	tank.jpg	5000	614	32	1	30	521	70	364,6999999999999886313
101523	12:57:58	1	SST	CRTT	deer.jpg	5500	417	37	1	31	521	70	364,6999999999999886313
101523	12:57:58	1	SST	CRTT	tank.jpg	4000	523	32	1	32	521	70	364,6999999999999886313
101523	12:57:58	1	SST	CRTT	deer.jpg	5500	546	37	1	33	521	70	364,6999999999999886313
101523	12:57:58	1	SST	CRTTstop	tank.jpg	4500	365	0	0	33	521	70	364,6999999999999886313
101523	12:57:58	1	SST	CRTTstop2	tank.jpg	4500	146	32	1	32	521	70	364,6999999999999886313
101523	12:57:58	1	SST	CRTT	tank.jpg	6000	644	32	1	33	521	70	364,6999999999999886313
101523	12:57:58	1	SST	CRTT	deer.jpg	6000	507	37	1	34	521	70	364,6999999999999886313
101523	12:57:58	1	SST	CRTT	tank.jpg	5500	675	32	1	35	521	70	364,6999999999999886313
101523	12:57:58	1	SST	CRTTstop	deer.jpg	6000	104	0	0	35	521	20	104,2000000000000028422
101523	12:57:58	1	SST	CRTTstop2	deer.jpg	6000	646	0	0	35	521	20	104,2000000000000028422
101523	12:57:58	1	SST	CRTTstop	tank.jpg	4904,1999999999998181011	417	0	0	35	521	80	416,8000000000000113687
101523	12:57:58	1	SST	CRTTstop2	tank.jpg	4904,1999999999998181011	52	32	1	34	521	80	416,8000000000000113687
101523	12:57:58	1	SST	CRTT	deer.jpg	4500	568	37	1	35	521	80	416,8000000000000113687
101523	12:57:58	1	SST	CRTT	deer.jpg	4000	547	37	1	36	521	80	416,8000000000000113687
101523	12:57:58	1	SST	CRTTstop	tank.jpg	5000	52	0	0	36	521	10	52,1000000000000014211
101523	12:57:58	1	SST	CRTTstop2	tank.jpg	5000	698	0	0	36	521	10	52,1000000000000014211
101523	12:57:58	1	SST	CRTT	tank.jpg	3852,0999999999999090505	711	37	0	35	521	10	52,1000000000000014211
101523	12:57:58	1	SST	CRTT	deer.jpg	5000	563	37	1	36	521	10	52,1000000000000014211
101523	12:57:58	1	SST	CRTT	tank.jpg	6000	581	32	1	37	521	10	52,1000000000000014211
101523	12:57:58	1	SST	CRTTstop	deer.jpg	6000	104	0	0	37	521	20	104,2000000000000028422
101523	12:57:58	1	SST	CRTTstop2	deer.jpg	6000	646	0	0	37	521	20	104,2000000000000028422
101523	12:57:58	1	SST	CRTTstop	tank.jpg	3404,1999999999998181011	52	0	0	37	521	10	52,1000000000000014211
101523	12:57:58	1	SST	CRTTstop2	tank.jpg	3404,1999999999998181011	698	0	0	37	521	10	52,1000000000000014211
101523	12:57:58	1	SST	CRTT	deer.jpg	3352,0999999999999090505	448	37	1	38	521	10	52,1000000000000014211
101523	12:57:58	1	SST	CRTT	deer.jpg	6000	461	37	1	39	521	10	52,1000000000000014211
101523	12:57:58	1	SST	CRTTstop	tank.jpg	5000	417	0	0	39	521	80	416,8000000000000113687
101523	12:57:58	1	SST	CRTTstop2	tank.jpg	5000	58	32	1	38	521	80	416,8000000000000113687
101523	12:57:58	1	SST	CRTT	deer.jpg	4000	546	37	1	39	521	80	416,8000000000000113687
101523	12:57:58	1	SST	CRTT	tank.jpg	5500	633	32	1	40	521	80	416,8000000000000113687
101523	12:57:58	1	SST	CRTTstop	deer.jpg	6000	365	0	0	40	521	70	364,6999999999999886313
101523	12:57:58	1	SST	CRTTstop2	deer.jpg	6000	199	37	1	39	521	70	364,6999999999999886313
101523	12:57:58	1	SST	CRTT	tank.jpg	6000	463	32	1	40	521	70	364,6999999999999886313
101523	12:57:58	1	SST	CRTT	deer.jpg	4500	634	37	1	41	521	70	364,6999999999999886313
101523	12:57:58	1	SST	CRTT	tank.jpg	5000	649	32	1	42	521	70	364,6999999999999886313
101523	12:57:58	1	SST	CRTT	deer.jpg	5500	643	37	1	43	521	70	364,6999999999999886313
101523	12:57:58	1	SST	CRTT	tank.jpg	5500	589	32	1	44	521	70	364,6999999999999886313
101523	12:57:58	1	SST	CRTTstop	tank.jpg	4500	52	0	0	44	521	10	52,1000000000000014211
101523	12:57:58	1	SST	CRTTstop2	tank.jpg	4500	698	0	0	44	521	10	52,1000000000000014211
101523	12:57:58	1	SST	CRTT	deer.jpg	3352,0999999999999090505	546	37	1	45	521	10	52,1000000000000014211
101523	12:57:58	1	SST	CRTT	deer.jpg	4500	585	37	1	46	521	10	52,1000000000000014211
101523	12:57:58	1	SST	CRTTstop	tank.jpg	4500	104	0	0	46	521	20	104,2000000000000028422
101523	12:57:58	1	SST	CRTTstop2	tank.jpg	4500	646	0	0	46	521	20	104,2000000000000028422
101523	12:57:58	1	SST	CRTT	tank.jpg	3904,1999999999998181011	529	32	1	47	521	20	104,2000000000000028422
101523	12:57:58	1	SST	CRTT	deer.jpg	4000	731	37	1	48	521	20	104,2000000000000028422
101523	12:57:58	1	SST	CRTT	deer.jpg	4000	663	37	1	49	521	20	104,2000000000000028422
101523	12:57:58	1	SST	CRTTstop	tank.jpg	4500	365	0	0	49	521	70	364,6999999999999886313
101523	12:57:58	1	SST	CRTTstop2	tank.jpg	4500	385	0	0	49	521	70	364,6999999999999886313
101523	12:57:58	1	SST	CRTTstop	tank.jpg	5164,6999999999998181011	417	0	0	49	521	80	416,8000000000000113687
101523	12:57:58	1	SST	CRTTstop2	tank.jpg	5164,6999999999998181011	92	32	1	48	521	80	416,8000000000000113687
101523	12:57:58	1	SST	CRTTstop	deer.jpg	5500	52	0	0	48	521	10	52,1000000000000014211
101523	12:57:58	1	SST	CRTTstop2	deer.jpg	5500	698	0	0	48	521	10	52,1000000000000014211
101523	12:57:58	1	SST	CRTT	deer.jpg	5352,1000000000003637979	569	37	1	49	521	10	52,1000000000000014211
101523	12:57:58	1	SST	CRTT	tank.jpg	5000	691	32	1	50	521	10	52,1000000000000014211
101523	12:57:58	1	SST	CRTT	deer.jpg	4000	617	37	1	51	521	10	52,1000000000000014211
101523	12:57:58	1	SST	CRTT	tank.jpg	4500	557	32	1	52	521	10	52,1000000000000014211
101523	12:57:58	1	SST	CRTT	tank.jpg	5000	743	32	1	53	521	10	52,1000000000000014211
101523	12:57:58	1	SST	CRTT	deer.jpg	6000	690	37	1	54	521	10	52,1000000000000014211
101523	12:57:58	1	SST	CRTTstop	deer.jpg	4000	417	0	0	54	521	80	416,8000000000000113687
101523	12:57:58	1	SST	CRTTstop2	deer.jpg	4000	333	0	0	54	521	80	416,8000000000000113687
101523	12:57:58	1	SST	CRTT	tank.jpg	4716,8000000000001818989	701	32	1	55	521	80	416,8000000000000113687
101523	12:57:58	1	SST	CRTT	deer.jpg	4000	698	37	1	56	521	80	416,8000000000000113687
101523	12:57:58	1	SST	CRTTstop	tank.jpg	4500	104	0	0	56	521	20	104,2000000000000028422
101523	12:57:58	1	SST	CRTTstop2	tank.jpg	4500	646	0	0	56	521	20	104,2000000000000028422
101523	12:57:58	1	SST	CRTT	tank.jpg	4404,1999999999998181011	719	32	1	57	521	20	104,2000000000000028422
101523	12:57:58	1	SST	CRTTstop	deer.jpg	6000	365	0	0	57	521	70	364,6999999999999886313
101523	12:57:58	1	SST	CRTTstop2	deer.jpg	6000	385	0	0	57	521	70	364,6999999999999886313
101523	12:57:58	1	SST	CRTT	deer.jpg	3664,6999999999998181011	611	37	1	58	521	70	364,6999999999999886313
101523	12:57:58	1	SST	CRTTstop	tank.jpg	5000	104	0	0	58	521	20	104,2000000000000028422
101523	12:57:58	1	SST	CRTTstop2	tank.jpg	5000	646	0	0	58	521	20	104,2000000000000028422
101523	12:57:58	1	SST	CRTT	tank.jpg	4404,1999999999998181011	750	0	0	57	521	20	104,2000000000000028422
101523	12:57:58	1	SST	CRTT	deer.jpg	5000	750	0	0	56	521	20	104,2000000000000028422
101523	12:57:58	1	SST	CRTTstop	deer.jpg	6000	365	0	0	56	521	70	364,6999999999999886313
101523	12:57:58	1	SST	CRTTstop2	deer.jpg	6000	385	0	0	56	521	70	364,6999999999999886313
101523	12:57:58	1	SST	CRTTstop	tank.jpg	4164,6999999999998181011	417	0	0	56	521	80	416,8000000000000113687
101523	12:57:58	1	SST	CRTTstop2	tank.jpg	4164,6999999999998181011	229	32	1	55	521	80	416,8000000000000113687
101523	12:57:58	1	SST	CRTT	deer.jpg	4000	750	0	0	54	521	80	416,8000000000000113687
101523	12:57:58	1	SST	CRTTstop	tank.jpg	6000	52	0	0	54	521	10	52,1000000000000014211
101523	12:57:58	1	SST	CRTTstop2	tank.jpg	6000	698	0	0	54	521	10	52,1000000000000014211
101523	12:57:58	1	SST	CRTTstop	tank.jpg	3852,0999999999999090505	365	0	0	54	521	70	364,6999999999999886313
101523	12:57:58	1	SST	CRTTstop2	tank.jpg	3852,0999999999999090505	201	32	1	53	521	70	364,6999999999999886313
101523	12:57:58	1	SST	CRTTstop	deer.jpg	5500	52	0	0	53	521	10	52,1000000000000014211
101523	12:57:58	1	SST	CRTTstop2	deer.jpg	5500	698	0	0	53	521	10	52,1000000000000014211
101523	12:57:58	1	SST	CRTT	deer.jpg	3352,0999999999999090505	701	37	1	54	521	10	52,1000000000000014211
101523	12:57:58	1	SST	CRTTstop	tank.jpg	5000	417	0	0	54	521	80	416,8000000000000113687
101523	12:57:58	1	SST	CRTTstop2	tank.jpg	5000	199	32	1	53	521	80	416,8000000000000113687
101523	12:57:58	1	SST	CRTTstop	deer.jpg	6000	104	0	0	53	521	20	104,2000000000000028422
101523	12:57:58	1	SST	CRTTstop2	deer.jpg	6000	646	0	0	53	521	20	104,2000000000000028422
101523	12:57:58	1	SST	CRTTstop	tank.jpg	5404,1999999999998181011	52	0	0	53	521	10	52,1000000000000014211
101523	12:57:58	1	SST	CRTTstop2	tank.jpg	5404,1999999999998181011	698	0	0	53	521	10	52,1000000000000014211
101523	12:57:58	1	SST	CRTT	tank.jpg	4352,1000000000003637979	606	32	1	54	521	10	52,1000000000000014211
101523	12:57:58	1	SST	CRTT	deer.jpg	4000	576	37	1	55	521	10	52,1000000000000014211
101523	12:57:58	1	SST	CRTTstop	tank.jpg	4500	104	0	0	55	521	20	104,2000000000000028422
101523	12:57:58	1	SST	CRTTstop2	tank.jpg	4500	646	0	0	55	521	20	104,2000000000000028422
101523	12:57:58	1	SST	CRTTstop	deer.jpg	3404,1999999999998181011	417	0	0	55	521	80	416,8000000000000113687
101523	12:57:58	1	SST	CRTTstop2	deer.jpg	3404,1999999999998181011	65	37	1	54	521	80	416,8000000000000113687
101523	12:57:58	1	SST	CRTT	tank.jpg	5000	639	32	1	55	521	80	416,8000000000000113687
101523	12:57:58	1	SST	CRTT	deer.jpg	4500	643	37	1	56	521	80	416,8000000000000113687
101523	12:57:58	1	SST	CRTT	deer.jpg	5000	610	37	1	57	521	80	416,8000000000000113687
101523	12:57:58	1	SST	CRTT	tank.jpg	5500	710	32	1	58	521	80	416,8000000000000113687
101523	12:57:58	1	SST	CRTT	tank.jpg	5000	674	32	1	59	521	80	416,8000000000000113687
