date	time	subject	blockcode	trialcode	picture.target.currentitem	values.stiminterval	latency	response	correct	values.score	values.AverageRTpractice	values.SSDcoeffitient	values.SSD
092523	12:11:00	1	Practice	CRTTpractice	tank.jpg	5000	638	32	1	1	0	0	0
092523	12:11:00	1	Practice	CRTTpractice	deer.jpg	6000	684	37	1	2	0	0	0
092523	12:11:00	1	Practice	CRTTpractice	deer.jpg	4000	750	0	0	1	0	0	0
092523	12:11:00	1	Practice	CRTTpractice	tank.jpg	6000	739	32	1	2	0	0	0
092523	12:11:00	1	Practice	CRTTpractice	deer.jpg	4000	750	0	0	1	0	0	0
092523	12:11:00	1	Practice	CRTTpractice	tank.jpg	4000	750	0	0	0	0	0	0
092523	12:11:00	1	Practice	CRTTpractice	tank.jpg	4500	750	0	0	-1	0	0	0
092523	12:11:00	1	Practice	CRTTpractice	deer.jpg	4000	636	37	1	0	0	0	0
092523	12:11:00	1	Practice	CRTTpractice	tank.jpg	4500	575	32	1	1	0	0	0
092523	12:11:00	1	Practice	CRTTpractice	deer.jpg	6000	600	37	1	2	0	0	0
092523	12:11:00	1	Practice	CRTTpractice	tank.jpg	4000	721	32	1	3	0	0	0
092523	12:11:00	1	Practice	CRTTpractice	deer.jpg	4500	682	37	1	4	0	0	0
092523	12:11:00	1	Practice	CRTTpractice	tank.jpg	6000	614	32	1	5	0	0	0
092523	12:11:00	1	Practice	CRTTpractice	deer.jpg	4500	602	37	1	6	0	0	0
092523	12:11:00	1	Practice	CRTTpractice	deer.jpg	6000	553	37	1	7	0	0	0
092523	12:11:00	1	Practice	CRTTpractice	tank.jpg	4500	672	32	1	8	0	0	0
092523	12:11:00	1	Practice	CRTTpractice	tank.jpg	4500	610	32	1	9	0	0	0
092523	12:11:00	1	Practice	CRTTpractice	deer.jpg	4500	559	37	1	10	0	0	0
092523	12:11:00	1	Practice	CRTTpractice	tank.jpg	5500	445	32	1	11	0	0	0
092523	12:11:00	1	Practice	CRTTpractice	deer.jpg	5000	556	37	1	12	0	0	0
092523	12:11:00	1	Practice	CRTTpractice	tank.jpg	5500	610	32	1	13	0	0	0
092523	12:11:00	1	Practice	CRTTpractice	deer.jpg	4500	615	37	1	14	0	0	0
092523	12:11:00	1	Practice	CRTTpractice	tank.jpg	4500	603	32	1	15	0	0	0
092523	12:11:00	1	Practice	CRTTpractice	deer.jpg	4500	568	37	1	16	0	0	0
092523	12:11:00	1	Practice	CRTTpractice	deer.jpg	6000	600	37	1	17	0	0	0
092523	12:11:00	1	Practice	CRTTpractice	tank.jpg	5000	705	32	1	18	0	0	0
092523	12:11:00	1	Practice	CRTTpractice	tank.jpg	4000	735	32	1	19	0	0	0
092523	12:11:00	1	Practice	CRTTpractice	deer.jpg	4000	666	37	1	20	0	0	0
092523	12:11:00	1	Practice	CRTTpractice	tank.jpg	5000	632	32	1	21	0	0	0
092523	12:11:00	1	Practice	CRTTpractice	deer.jpg	4500	571	37	1	22	0	0	0
092523	12:11:00	1	SST	CRTT	tank.jpg	5000	672	32	1	23	640	0	0
092523	12:11:00	1	SST	CRTT	deer.jpg	4000	503	37	1	24	640	0	0
092523	12:11:00	1	SST	CRTT	tank.jpg	5000	611	32	1	25	640	0	0
092523	12:11:00	1	SST	CRTTstop	deer.jpg	5500	448	0	0	25	640	70	448
092523	12:11:00	1	SST	CRTTstop2	deer.jpg	5500	252	37	1	24	640	70	448
092523	12:11:00	1	SST	CRTT	deer.jpg	4000	732	37	1	25	640	70	448
092523	12:11:00	1	SST	CRTTstop	tank.jpg	4500	512	0	0	25	640	80	512
092523	12:11:00	1	SST	CRTTstop2	tank.jpg	4500	238	0	0	25	640	80	512
092523	12:11:00	1	SST	CRTTstop	tank.jpg	3812	64	0	0	25	640	10	64
092523	12:11:00	1	SST	CRTTstop2	tank.jpg	3812	686	0	0	25	640	10	64
092523	12:11:00	1	SST	CRTTstop	deer.jpg	4864	128	0	0	25	640	20	128
092523	12:11:00	1	SST	CRTTstop2	deer.jpg	4864	622	0	0	25	640	20	128
092523	12:11:00	1	SST	CRTTstop	tank.jpg	3928	512	0	0	25	640	80	512
092523	12:11:00	1	SST	CRTTstop2	tank.jpg	3928	238	0	0	25	640	80	512
092523	12:11:00	1	SST	CRTT	deer.jpg	5312	750	0	0	24	640	80	512
092523	12:11:00	1	SST	CRTTstop	tank.jpg	4000	448	0	0	24	640	70	448
092523	12:11:00	1	SST	CRTTstop2	tank.jpg	4000	302	0	0	24	640	70	448
092523	12:11:00	1	SST	CRTTstop	deer.jpg	5748	64	0	0	24	640	10	64
092523	12:11:00	1	SST	CRTTstop2	deer.jpg	5748	686	0	0	24	640	10	64
092523	12:11:00	1	SST	CRTT	deer.jpg	3364	750	0	0	23	640	10	64
092523	12:11:00	1	SST	CRTT	tank.jpg	6000	750	0	0	22	640	10	64
092523	12:11:00	1	SST	CRTT	deer.jpg	5500	544	37	1	23	640	10	64
092523	12:11:00	1	SST	CRTT	tank.jpg	4500	615	32	1	24	640	10	64
092523	12:11:00	1	SST	CRTT	deer.jpg	4500	460	37	1	25	640	10	64
092523	12:11:00	1	SST	CRTT	tank.jpg	5000	650	32	1	26	640	10	64
092523	12:11:00	1	SST	CRTT	deer.jpg	5000	750	0	0	25	640	10	64
092523	12:11:00	1	SST	CRTT	tank.jpg	5500	750	0	0	24	640	10	64
092523	12:11:00	1	SST	CRTT	tank.jpg	4500	750	0	0	23	640	10	64
092523	12:11:00	1	SST	CRTTstop	deer.jpg	6000	128	0	0	23	640	20	128
092523	12:11:00	1	SST	CRTTstop2	deer.jpg	6000	622	0	0	23	640	20	128
092523	12:11:00	1	SST	CRTT	deer.jpg	4928	750	0	0	22	640	20	128
092523	12:11:00	1	SST	CRTTstop	tank.jpg	5000	64	0	0	22	640	10	64
092523	12:11:00	1	SST	CRTTstop2	tank.jpg	5000	686	0	0	22	640	10	64
092523	12:11:00	1	SST	CRTT	deer.jpg	3364	748	37	1	23	640	10	64
092523	12:11:00	1	SST	CRTTstop	tank.jpg	4000	128	0	0	23	640	20	128
092523	12:11:00	1	SST	CRTTstop2	tank.jpg	4000	622	0	0	23	640	20	128
092523	12:11:00	1	SST	CRTTstop	deer.jpg	4428	512	0	0	23	640	80	512
092523	12:11:00	1	SST	CRTTstop2	deer.jpg	4428	28	37	1	22	640	80	512
092523	12:11:00	1	SST	CRTTstop	tank.jpg	4500	448	0	0	22	640	70	448
092523	12:11:00	1	SST	CRTTstop2	tank.jpg	4500	302	0	0	22	640	70	448
092523	12:11:00	1	SST	CRTT	deer.jpg	5748	717	37	1	23	640	70	448
092523	12:11:00	1	SST	CRTT	tank.jpg	5000	750	0	0	22	640	70	448
092523	12:11:00	1	SST	CRTT	deer.jpg	6000	482	37	1	23	640	70	448
092523	12:11:00	1	SST	CRTTstop	tank.jpg	6000	64	0	0	23	640	10	64
092523	12:11:00	1	SST	CRTTstop2	tank.jpg	6000	686	0	0	23	640	10	64
092523	12:11:00	1	SST	CRTT	deer.jpg	4864	750	0	0	22	640	10	64
092523	12:11:00	1	SST	CRTT	tank.jpg	4500	750	0	0	21	640	10	64
092523	12:11:00	1	SST	CRTT	tank.jpg	4500	532	32	1	22	640	10	64
092523	12:11:00	1	SST	CRTTstop	deer.jpg	5500	128	0	0	22	640	20	128
092523	12:11:00	1	SST	CRTTstop2	deer.jpg	5500	622	0	0	22	640	20	128
092523	12:11:00	1	SST	CRTT	deer.jpg	4428	629	37	1	23	640	20	128
092523	12:11:00	1	SST	CRTT	tank.jpg	4500	633	32	1	24	640	20	128
092523	12:11:00	1	SST	CRTT	tank.jpg	5500	715	32	1	25	640	20	128
092523	12:11:00	1	SST	CRTT	deer.jpg	4500	724	37	1	26	640	20	128
092523	12:11:00	1	SST	CRTT	tank.jpg	5500	731	32	1	27	640	20	128
092523	12:11:00	1	SST	CRTT	deer.jpg	5000	693	37	1	28	640	20	128
092523	12:11:00	1	SST	CRTTstop	tank.jpg	4500	448	0	0	28	640	70	448
092523	12:11:00	1	SST	CRTTstop2	tank.jpg	4500	302	0	0	28	640	70	448
092523	12:11:00	1	SST	CRTT	deer.jpg	5248	535	37	1	29	640	70	448
092523	12:11:00	1	SST	CRTTstop	tank.jpg	5000	512	0	0	29	640	80	512
092523	12:11:00	1	SST	CRTTstop2	tank.jpg	5000	237	32	1	28	640	80	512
092523	12:11:00	1	SST	CRTT	deer.jpg	4500	750	0	0	27	640	80	512
092523	12:11:00	1	SST	CRTT	tank.jpg	6000	750	0	0	26	640	80	512
092523	12:11:00	1	SST	CRTT	deer.jpg	4500	750	0	0	25	640	80	512
092523	12:11:00	1	SST	CRTTstop	tank.jpg	4500	64	0	0	25	640	10	64
092523	12:11:00	1	SST	CRTTstop2	tank.jpg	4500	686	0	0	25	640	10	64
092523	12:11:00	1	SST	CRTT	deer.jpg	5364	750	0	0	24	640	10	64
092523	12:11:00	1	SST	CRTTstop	tank.jpg	4000	448	0	0	24	640	70	448
092523	12:11:00	1	SST	CRTTstop2	tank.jpg	4000	302	0	0	24	640	70	448
092523	12:11:00	1	SST	CRTT	deer.jpg	4748	540	37	1	25	640	70	448
092523	12:11:00	1	SST	CRTTstop	deer.jpg	4000	512	0	0	25	640	80	512
092523	12:11:00	1	SST	CRTTstop2	deer.jpg	4000	179	37	1	24	640	80	512
092523	12:11:00	1	SST	CRTT	tank.jpg	6000	750	0	0	23	640	80	512
092523	12:11:00	1	SST	CRTTstop	tank.jpg	6000	128	0	0	23	640	20	128
092523	12:11:00	1	SST	CRTTstop2	tank.jpg	6000	622	0	0	23	640	20	128
092523	12:11:00	1	SST	CRTT	deer.jpg	3928	532	37	1	24	640	20	128
092523	12:11:00	1	SST	CRTT	tank.jpg	5000	655	32	1	25	640	20	128
092523	12:11:00	1	SST	CRTT	deer.jpg	4500	530	37	1	26	640	20	128
092523	12:11:00	1	SST	CRTTstop	deer.jpg	5500	64	0	0	26	640	10	64
092523	12:11:00	1	SST	CRTTstop2	deer.jpg	5500	686	0	0	26	640	10	64
092523	12:11:00	1	SST	CRTT	tank.jpg	5364	549	32	1	27	640	10	64
092523	12:11:00	1	SST	CRTT	tank.jpg	4000	736	32	1	28	640	10	64
092523	12:11:00	1	SST	CRTT	deer.jpg	6000	538	37	1	29	640	10	64
092523	12:11:00	1	SST	CRTTstop	deer.jpg	4500	512	0	0	29	640	80	512
092523	12:11:00	1	SST	CRTTstop2	deer.jpg	4500	116	37	1	28	640	80	512
092523	12:11:00	1	SST	CRTT	tank.jpg	6000	671	32	1	29	640	80	512
092523	12:11:00	1	SST	CRTTstop	tank.jpg	4500	128	0	0	29	640	20	128
092523	12:11:00	1	SST	CRTTstop2	tank.jpg	4500	622	0	0	29	640	20	128
092523	12:11:00	1	SST	CRTT	deer.jpg	3428	573	37	1	30	640	20	128
092523	12:11:00	1	SST	CRTT	tank.jpg	5000	646	32	1	31	640	20	128
092523	12:11:00	1	SST	CRTTstop	deer.jpg	4000	448	0	0	31	640	70	448
092523	12:11:00	1	SST	CRTTstop2	deer.jpg	4000	84	37	1	30	640	70	448
092523	12:11:00	1	SST	CRTT	tank.jpg	4500	750	0	0	29	640	70	448
092523	12:11:00	1	SST	CRTT	deer.jpg	5000	480	37	1	30	640	70	448
092523	12:11:00	1	SST	CRTTstop	tank.jpg	4500	128	0	0	30	640	20	128
092523	12:11:00	1	SST	CRTTstop2	tank.jpg	4500	622	0	0	30	640	20	128
092523	12:11:00	1	SST	CRTT	deer.jpg	3928	481	37	1	31	640	20	128
092523	12:11:00	1	SST	CRTTstop	tank.jpg	6000	430	32	1	30	640	80	512
092523	12:11:00	1	SST	CRTT	deer.jpg	5000	589	37	1	31	640	80	512
092523	12:11:00	1	SST	CRTTstop	deer.jpg	5500	64	0	0	31	640	10	64
092523	12:11:00	1	SST	CRTTstop2	deer.jpg	5500	686	0	0	31	640	10	64
092523	12:11:00	1	SST	CRTTstop	tank.jpg	5364	448	0	0	31	640	70	448
092523	12:11:00	1	SST	CRTTstop2	tank.jpg	5364	131	32	1	30	640	70	448
092523	12:11:00	1	SST	CRTT	tank.jpg	4500	715	32	1	31	640	70	448
092523	12:11:00	1	SST	CRTT	deer.jpg	4000	750	0	0	30	640	70	448
092523	12:11:00	1	SST	CRTT	tank.jpg	4500	543	32	1	31	640	70	448
092523	12:11:00	1	SST	CRTT	deer.jpg	5500	485	32	0	30	640	70	448
092523	12:11:00	1	SST	CRTT	deer.jpg	5000	530	37	1	31	640	70	448
092523	12:11:00	1	SST	CRTT	tank.jpg	4500	602	32	1	32	640	70	448
092523	12:11:00	1	SST	CRTTstop	tank.jpg	4000	512	0	0	32	640	80	512
092523	12:11:00	1	SST	CRTTstop2	tank.jpg	4000	142	32	1	31	640	80	512
092523	12:11:00	1	SST	CRTT	deer.jpg	5500	565	37	1	32	640	80	512
092523	12:11:00	1	SST	CRTT	tank.jpg	4000	663	32	1	33	640	80	512
092523	12:11:00	1	SST	CRTTstop	deer.jpg	5000	448	0	0	33	640	70	448
092523	12:11:00	1	SST	CRTTstop2	deer.jpg	5000	139	37	1	32	640	70	448
092523	12:11:00	1	SST	CRTT	deer.jpg	4500	668	37	1	33	640	70	448
092523	12:11:00	1	SST	CRTTstop	tank.jpg	5000	128	0	0	33	640	20	128
092523	12:11:00	1	SST	CRTTstop2	tank.jpg	5000	622	0	0	33	640	20	128
092523	12:11:00	1	SST	CRTTstop	tank.jpg	4428	64	0	0	33	640	10	64
092523	12:11:00	1	SST	CRTTstop2	tank.jpg	4428	686	0	0	33	640	10	64
092523	12:11:00	1	SST	CRTT	deer.jpg	5364	519	37	1	34	640	10	64
092523	12:11:00	1	SST	CRTT	tank.jpg	5000	667	32	1	35	640	10	64
092523	12:11:00	1	SST	CRTTstop	deer.jpg	4000	64	0	0	35	640	10	64
092523	12:11:00	1	SST	CRTTstop2	deer.jpg	4000	686	0	0	35	640	10	64
092523	12:11:00	1	SST	CRTT	deer.jpg	3364	567	37	1	36	640	10	64
092523	12:11:00	1	SST	CRTT	tank.jpg	4000	546	32	1	37	640	10	64
092523	12:11:00	1	SST	CRTT	tank.jpg	5000	637	32	1	38	640	10	64
092523	12:11:00	1	SST	CRTT	deer.jpg	5000	684	37	1	39	640	10	64
092523	12:11:00	1	SST	CRTT	deer.jpg	4500	558	37	1	40	640	10	64
092523	12:11:00	1	SST	CRTT	tank.jpg	6000	535	32	1	41	640	10	64
092523	16:39:08	1	Practice	CRTTpractice	tank.jpg	4500	750	0	0	-1	0	0	0
092523	16:39:08	1	Practice	CRTTpractice	deer.jpg	6000	750	0	0	-2	0	0	0
092523	16:39:08	1	Practice	CRTTpractice	deer.jpg	5500	631	32	0	-3	0	0	0
092523	16:39:08	1	Practice	CRTTpractice	tank.jpg	4000	750	0	0	-4	0	0	0
092523	16:39:08	1	Practice	CRTTpractice	deer.jpg	4000	738	37	1	-3	0	0	0
092523	16:39:08	1	Practice	CRTTpractice	tank.jpg	5500	609	32	1	-2	0	0	0
092523	16:39:08	1	Practice	CRTTpractice	tank.jpg	6000	560	37	0	-3	0	0	0
092523	16:39:08	1	Practice	CRTTpractice	deer.jpg	5500	750	0	0	-4	0	0	0
092523	16:39:08	1	Practice	CRTTpractice	deer.jpg	4500	588	37	1	-3	0	0	0
092523	16:39:08	1	Practice	CRTTpractice	tank.jpg	4000	703	32	1	-2	0	0	0
092523	16:39:08	1	Practice	CRTTpractice	tank.jpg	6000	554	37	0	-3	0	0	0
092523	16:39:08	1	Practice	CRTTpractice	deer.jpg	5500	663	37	1	-2	0	0	0
092523	16:39:08	1	Practice	CRTTpractice	tank.jpg	6000	541	32	1	-1	0	0	0
092523	16:39:08	1	Practice	CRTTpractice	deer.jpg	4500	597	37	1	0	0	0	0
092523	16:39:08	1	Practice	CRTTpractice	tank.jpg	5500	633	32	1	1	0	0	0
092523	16:39:08	1	Practice	CRTTpractice	deer.jpg	6000	535	37	1	2	0	0	0
092523	16:39:08	1	Practice	CRTTpractice	deer.jpg	4500	750	0	0	1	0	0	0
092523	16:39:08	1	Practice	CRTTpractice	tank.jpg	4500	525	32	1	2	0	0	0
092523	16:39:08	1	Practice	CRTTpractice	tank.jpg	5000	497	32	1	3	0	0	0
092523	16:39:08	1	Practice	CRTTpractice	deer.jpg	5000	725	37	1	4	0	0	0
092523	16:39:08	1	Practice	CRTTpractice	tank.jpg	5000	457	32	1	5	0	0	0
092523	16:39:08	1	Practice	CRTTpractice	deer.jpg	5000	423	37	1	6	0	0	0
092523	16:39:08	1	Practice	CRTTpractice	tank.jpg	6000	599	32	1	7	0	0	0
092523	16:39:08	1	Practice	CRTTpractice	deer.jpg	6000	534	37	1	8	0	0	0
092523	16:39:08	1	Practice	CRTTpractice	deer.jpg	4000	618	37	1	9	0	0	0
092523	16:39:08	1	Practice	CRTTpractice	tank.jpg	5000	750	0	0	8	0	0	0
092523	16:39:08	1	Practice	CRTTpractice	deer.jpg	4000	676	37	1	9	0	0	0
092523	16:39:08	1	Practice	CRTTpractice	tank.jpg	6000	577	32	1	10	0	0	0
092523	16:39:08	1	Practice	CRTTpractice	deer.jpg	6000	714	37	1	11	0	0	0
092523	16:39:08	1	Practice	CRTTpractice	tank.jpg	6000	557	32	1	12	0	0	0
092523	16:39:08	1	SST	CRTT	tank.jpg	4500	505	32	1	13	625	0	0
092523	16:39:08	1	SST	CRTTstop	deer.jpg	5500	438	0	0	13	625	70	437,5
092523	16:39:08	1	SST	CRTTstop2	deer.jpg	5500	119	37	1	12	625	70	437,5
092523	16:39:08	1	SST	CRTT	deer.jpg	5000	667	37	1	13	625	70	437,5
092523	16:39:08	1	SST	CRTT	tank.jpg	4500	533	32	1	14	625	70	437,5
092523	16:39:08	1	SST	CRTT	tank.jpg	6000	551	32	1	15	625	70	437,5
092523	16:39:08	1	SST	CRTTstop	deer.jpg	6000	63	0	0	15	625	10	62,5
092523	16:39:08	1	SST	CRTTstop2	deer.jpg	6000	688	0	0	15	625	10	62,5
092523	16:39:08	1	SST	CRTT	deer.jpg	3862,5	618	37	1	16	625	10	62,5
092523	16:39:08	1	SST	CRTTstop	tank.jpg	5500	125	0	0	16	625	20	125
092523	16:39:08	1	SST	CRTTstop2	tank.jpg	5500	625	0	0	16	625	20	125
092523	16:39:08	1	SST	CRTTstop	tank.jpg	3925	500	0	0	16	625	80	500
092523	16:39:08	1	SST	CRTTstop2	tank.jpg	3925	15	32	1	15	625	80	500
092523	16:39:08	1	SST	CRTT	deer.jpg	4500	750	0	0	14	625	80	500
092523	16:39:08	1	SST	CRTT	deer.jpg	4000	559	37	1	15	625	80	500
092523	16:39:08	1	SST	CRTTstop	tank.jpg	4500	438	0	0	15	625	70	437,5
092523	16:39:08	1	SST	CRTTstop2	tank.jpg	4500	140	32	1	14	625	70	437,5
092523	16:39:08	1	SST	CRTTstop	tank.jpg	4500	500	0	0	14	625	80	500
092523	16:39:08	1	SST	CRTTstop2	tank.jpg	4500	118	32	1	13	625	80	500
092523	16:39:08	1	SST	CRTT	deer.jpg	6000	602	37	1	14	625	80	500
092523	16:39:08	1	SST	CRTTstop	deer.jpg	4000	63	0	0	14	625	10	62,5
092523	16:39:08	1	SST	CRTTstop2	deer.jpg	4000	688	0	0	14	625	10	62,5
092523	16:39:08	1	SST	CRTT	tank.jpg	4362,5	750	0	0	13	625	10	62,5
092523	16:39:08	1	SST	CRTT	deer.jpg	5000	750	0	0	12	625	10	62,5
092523	16:39:08	1	SST	CRTT	tank.jpg	6000	531	32	1	13	625	10	62,5
092523	16:39:08	1	SST	CRTT	deer.jpg	6000	445	37	1	14	625	10	62,5
092523	16:39:08	1	SST	CRTT	tank.jpg	4000	678	32	1	15	625	10	62,5
092523	16:39:08	1	SST	CRTT	tank.jpg	4000	644	32	1	16	625	10	62,5
092523	16:39:08	1	SST	CRTTstop	deer.jpg	4000	125	0	0	16	625	20	125
092523	16:39:08	1	SST	CRTTstop2	deer.jpg	4000	625	0	0	16	625	20	125
092523	16:39:08	1	SST	CRTT	deer.jpg	5425	606	32	0	15	625	20	125
092523	16:39:08	1	SST	CRTT	tank.jpg	6000	750	0	0	14	625	20	125
092523	16:39:08	1	SST	CRTT	deer.jpg	4500	750	0	0	13	625	20	125
092523	16:39:08	1	SST	CRTT	tank.jpg	5000	750	0	0	12	625	20	125
092523	16:39:08	1	SST	CRTTstop	deer.jpg	4000	500	0	0	12	625	80	500
092523	16:39:08	1	SST	CRTTstop2	deer.jpg	4000	250	0	0	12	625	80	500
092523	16:39:08	1	SST	CRTT	tank.jpg	4800	684	32	1	13	625	80	500
092523	16:39:08	1	SST	CRTT	tank.jpg	4500	637	32	1	14	625	80	500
092523	16:39:08	1	SST	CRTTstop	deer.jpg	5000	438	0	0	14	625	70	437,5
092523	16:39:08	1	SST	CRTTstop2	deer.jpg	5000	313	0	0	14	625	70	437,5
092523	16:39:08	1	SST	CRTT	deer.jpg	5237,5	750	0	0	13	625	70	437,5
092523	16:39:08	1	SST	CRTTstop	tank.jpg	6000	63	0	0	13	625	10	62,5
092523	16:39:08	1	SST	CRTTstop2	tank.jpg	6000	688	0	0	13	625	10	62,5
092523	16:39:08	1	SST	CRTTstop	deer.jpg	5362,5	125	0	0	13	625	20	125
092523	16:39:08	1	SST	CRTTstop2	deer.jpg	5362,5	625	0	0	13	625	20	125
092523	16:39:08	1	SST	CRTT	tank.jpg	4925	505	32	1	14	625	20	125
092523	16:39:08	1	SST	CRTT	tank.jpg	5500	750	0	0	13	625	20	125
092523	16:39:08	1	SST	CRTT	deer.jpg	6000	586	37	1	14	625	20	125
092523	16:39:08	1	SST	CRTTstop	tank.jpg	5500	500	0	0	14	625	80	500
092523	16:39:08	1	SST	CRTTstop2	tank.jpg	5500	210	32	1	13	625	80	500
092523	16:39:08	1	SST	CRTT	deer.jpg	5500	638	37	1	14	625	80	500
092523	16:39:08	1	SST	CRTTstop	tank.jpg	6000	63	0	0	14	625	10	62,5
092523	16:39:08	1	SST	CRTTstop2	tank.jpg	6000	688	0	0	14	625	10	62,5
092523	16:39:08	1	SST	CRTT	deer.jpg	3862,5	621	37	1	15	625	10	62,5
092523	16:39:08	1	SST	CRTTstop	tank.jpg	5500	125	0	0	15	625	20	125
092523	16:39:08	1	SST	CRTTstop2	tank.jpg	5500	625	0	0	15	625	20	125
092523	16:39:08	1	SST	CRTT	deer.jpg	4925	695	37	1	16	625	20	125
092523	16:39:08	1	SST	CRTTstop	tank.jpg	5500	438	0	0	16	625	70	437,5
092523	16:39:08	1	SST	CRTTstop2	tank.jpg	5500	313	0	0	16	625	70	437,5
092523	16:39:08	1	SST	CRTTstop	deer.jpg	3737,5	63	0	0	16	625	10	62,5
092523	16:39:08	1	SST	CRTTstop2	deer.jpg	3737,5	688	0	0	16	625	10	62,5
092523	16:39:08	1	SST	CRTTstop	deer.jpg	4362,5	125	0	0	16	625	20	125
092523	16:39:08	1	SST	CRTTstop2	deer.jpg	4362,5	625	0	0	16	625	20	125
092523	16:39:08	1	SST	CRTTstop	tank.jpg	5425	438	0	0	16	625	70	437,5
092523	16:39:08	1	SST	CRTTstop2	tank.jpg	5425	122	32	1	15	625	70	437,5
092523	16:39:08	1	SST	CRTT	deer.jpg	5500	750	0	0	14	625	70	437,5
092523	16:39:08	1	SST	CRTT	tank.jpg	4500	656	32	1	15	625	70	437,5
092523	16:39:08	1	SST	CRTT	deer.jpg	4000	479	37	1	16	625	70	437,5
092523	16:39:08	1	SST	CRTTstop	tank.jpg	4500	500	0	0	16	625	80	500
092523	16:39:08	1	SST	CRTTstop2	tank.jpg	4500	5	32	1	15	625	80	500
092523	16:39:08	1	SST	CRTT	tank.jpg	6000	685	32	1	16	625	80	500
092523	16:39:08	1	SST	CRTT	deer.jpg	6000	433	37	1	17	625	80	500
092523	16:39:08	1	SST	CRTT	deer.jpg	6000	519	37	1	18	625	80	500
092523	16:39:08	1	SST	CRTT	tank.jpg	4000	708	32	1	19	625	80	500
092523	16:39:08	1	SST	CRTT	tank.jpg	5000	672	32	1	20	625	80	500
092523	16:39:08	1	SST	CRTT	deer.jpg	5500	593	32	0	19	625	80	500
092523	16:39:08	1	SST	CRTT	tank.jpg	6000	481	32	1	20	625	80	500
092523	16:39:08	1	SST	CRTT	deer.jpg	4000	679	37	1	21	625	80	500
092523	16:39:08	1	SST	CRTT	tank.jpg	4000	662	32	1	22	625	80	500
092523	16:39:08	1	SST	CRTTstop	deer.jpg	4500	500	0	0	22	625	80	500
092523	16:39:08	1	SST	CRTTstop2	deer.jpg	4500	12	37	1	21	625	80	500
092523	16:39:08	1	SST	CRTT	deer.jpg	4000	501	37	1	22	625	80	500
092523	16:39:08	1	SST	CRTT	tank.jpg	4000	555	32	1	23	625	80	500
092523	16:39:08	1	SST	CRTT	tank.jpg	5000	725	32	1	24	625	80	500
092523	16:39:08	1	SST	CRTT	deer.jpg	5500	580	37	1	25	625	80	500
092523	16:39:08	1	SST	CRTT	tank.jpg	4500	750	0	0	24	625	80	500
092523	16:39:08	1	SST	CRTT	deer.jpg	4000	621	37	1	25	625	80	500
092523	16:39:08	1	SST	CRTTstop	tank.jpg	5500	438	0	0	25	625	70	437,5
092523	16:39:08	1	SST	CRTTstop2	tank.jpg	5500	313	0	0	25	625	70	437,5
092523	16:39:08	1	SST	CRTT	deer.jpg	4737,5	750	0	0	24	625	70	437,5
092523	16:39:08	1	SST	CRTT	tank.jpg	6000	551	32	1	25	625	70	437,5
092523	16:39:08	1	SST	CRTTstop	deer.jpg	4000	125	0	0	25	625	20	125
092523	16:39:08	1	SST	CRTTstop2	deer.jpg	4000	625	0	0	25	625	20	125
092523	16:39:08	1	SST	CRTT	tank.jpg	4425	749	32	1	26	625	20	125
092523	16:39:08	1	SST	CRTT	deer.jpg	4500	532	37	1	27	625	20	125
092523	16:39:08	1	SST	CRTTstop	deer.jpg	4500	63	0	0	27	625	10	62,5
092523	16:39:08	1	SST	CRTTstop2	deer.jpg	4500	688	0	0	27	625	10	62,5
092523	16:39:08	1	SST	CRTTstop	tank.jpg	4862,5	125	0	0	27	625	20	125
092523	16:39:08	1	SST	CRTTstop2	tank.jpg	4862,5	625	0	0	27	625	20	125
092523	16:39:08	1	SST	CRTT	deer.jpg	4925	554	37	1	28	625	20	125
092523	16:39:08	1	SST	CRTTstop	tank.jpg	6000	63	0	0	28	625	10	62,5
092523	16:39:08	1	SST	CRTTstop2	tank.jpg	6000	688	0	0	28	625	10	62,5
092523	16:39:08	1	SST	CRTTstop	deer.jpg	3362,5	438	0	0	28	625	70	437,5
092523	16:39:08	1	SST	CRTTstop2	deer.jpg	3362,5	135	37	1	27	625	70	437,5
092523	16:39:08	1	SST	CRTT	tank.jpg	6000	750	0	0	26	625	70	437,5
092523	16:39:08	1	SST	CRTT	deer.jpg	5500	663	37	1	27	625	70	437,5
092523	16:39:08	1	SST	CRTTstop	tank.jpg	5500	457	32	1	26	625	80	500
092523	16:39:08	1	SST	CRTTstop	tank.jpg	4000	500	0	0	26	625	80	500
092523	16:39:08	1	SST	CRTTstop2	tank.jpg	4000	99	32	1	25	625	80	500
092523	16:39:08	1	SST	CRTT	deer.jpg	5000	599	37	1	26	625	80	500
092523	16:39:08	1	SST	CRTT	deer.jpg	5500	596	37	1	27	625	80	500
092523	16:39:08	1	SST	CRTTstop	tank.jpg	4500	125	0	0	27	625	20	125
092523	16:39:08	1	SST	CRTTstop2	tank.jpg	4500	625	0	0	27	625	20	125
092523	16:39:08	1	SST	CRTT	tank.jpg	4425	676	32	1	28	625	20	125
092523	16:39:08	1	SST	CRTT	deer.jpg	5500	621	37	1	29	625	20	125
092523	16:39:08	1	SST	CRTTstop	deer.jpg	4000	63	0	0	29	625	10	62,5
092523	16:39:08	1	SST	CRTTstop2	deer.jpg	4000	688	0	0	29	625	10	62,5
092523	16:39:08	1	SST	CRTT	tank.jpg	3362,5	750	0	0	28	625	10	62,5
092523	16:39:08	1	SST	CRTT	tank.jpg	5000	549	32	1	29	625	10	62,5
092523	16:39:08	1	SST	CRTTstop	deer.jpg	5000	438	0	0	29	625	70	437,5
092523	16:39:08	1	SST	CRTTstop2	deer.jpg	5000	86	37	1	28	625	70	437,5
092523	16:39:08	1	SST	CRTT	tank.jpg	4500	640	32	1	29	625	70	437,5
092523	16:39:08	1	SST	CRTTstop	deer.jpg	4000	63	0	0	29	625	10	62,5
092523	16:39:08	1	SST	CRTTstop2	deer.jpg	4000	688	0	0	29	625	10	62,5
092523	16:39:08	1	SST	CRTT	deer.jpg	3862,5	750	0	0	28	625	10	62,5
092523	16:39:08	1	SST	CRTT	tank.jpg	5000	443	32	1	29	625	10	62,5
092523	16:39:08	1	SST	CRTT	tank.jpg	4000	750	0	0	28	625	10	62,5
092523	16:39:08	1	SST	CRTT	deer.jpg	5000	685	37	1	29	625	10	62,5
092523	16:39:08	1	SST	CRTT	tank.jpg	5500	750	0	0	28	625	10	62,5
092523	16:39:08	1	SST	CRTTstop	deer.jpg	6000	447	32	1	27	625	80	500
092523	16:39:08	1	SST	CRTT	tank.jpg	4500	578	32	1	28	625	80	500
