date	time	subject	blockcode	trialcode	picture.target.currentitem	values.stiminterval	latency	response	correct	values.score	values.AverageRTpractice	values.SSDcoeffitient	values.SSD
093023	12:02:30	1	Practice	CRTTpractice	deer.jpg	6000	750	0	0	-1	0	0	0
093023	12:02:30	1	Practice	CRTTpractice	tank.jpg	4000	461	32	1	0	0	0	0
093023	12:02:30	1	Practice	CRTTpractice	deer.jpg	5500	367	37	1	1	0	0	0
093023	12:02:30	1	Practice	CRTTpractice	tank.jpg	6000	512	32	1	2	0	0	0
093023	12:02:30	1	Practice	CRTTpractice	deer.jpg	5500	424	37	1	3	0	0	0
093023	12:02:30	1	Practice	CRTTpractice	tank.jpg	4000	369	32	1	4	0	0	0
093023	12:02:30	1	Practice	CRTTpractice	tank.jpg	6000	361	37	0	3	0	0	0
093023	12:02:30	1	Practice	CRTTpractice	deer.jpg	4500	409	32	0	2	0	0	0
093023	12:02:30	1	Practice	CRTTpractice	deer.jpg	4500	502	37	1	3	0	0	0
093023	12:02:30	1	Practice	CRTTpractice	tank.jpg	5500	501	32	1	4	0	0	0
093023	12:02:30	1	Practice	CRTTpractice	deer.jpg	4000	483	37	1	5	0	0	0
093023	12:02:30	1	Practice	CRTTpractice	tank.jpg	5000	424	32	1	6	0	0	0
093023	12:02:30	1	Practice	CRTTpractice	tank.jpg	5000	576	32	1	7	0	0	0
093023	12:02:30	1	Practice	CRTTpractice	deer.jpg	5500	405	37	1	8	0	0	0
093023	12:02:30	1	Practice	CRTTpractice	tank.jpg	5000	382	32	1	9	0	0	0
093023	12:02:30	1	Practice	CRTTpractice	deer.jpg	4000	384	37	1	10	0	0	0
093023	12:02:30	1	Practice	CRTTpractice	deer.jpg	5500	469	37	1	11	0	0	0
093023	12:02:30	1	Practice	CRTTpractice	tank.jpg	4000	483	32	1	12	0	0	0
093023	12:02:30	1	Practice	CRTTpractice	deer.jpg	4500	613	37	1	13	0	0	0
093023	12:02:30	1	Practice	CRTTpractice	tank.jpg	4500	466	32	1	14	0	0	0
093023	12:02:30	1	Practice	CRTTpractice	deer.jpg	5000	544	37	1	15	0	0	0
093023	12:02:30	1	Practice	CRTTpractice	tank.jpg	6000	481	32	1	16	0	0	0
093023	12:02:30	1	Practice	CRTTpractice	deer.jpg	5500	562	37	1	17	0	0	0
093023	12:02:30	1	Practice	CRTTpractice	tank.jpg	4500	449	32	1	18	0	0	0
093023	12:02:30	1	Practice	CRTTpractice	tank.jpg	5500	411	32	1	19	0	0	0
093023	12:02:30	1	Practice	CRTTpractice	deer.jpg	4000	413	37	1	20	0	0	0
093023	12:02:30	1	Practice	CRTTpractice	tank.jpg	5000	493	32	1	21	0	0	0
093023	12:02:30	1	Practice	CRTTpractice	deer.jpg	5000	395	37	1	22	0	0	0
093023	12:02:30	1	Practice	CRTTpractice	tank.jpg	5000	428	32	1	23	0	0	0
093023	12:02:30	1	Practice	CRTTpractice	deer.jpg	4000	405	37	1	24	0	0	0
093023	12:02:30	1	SST	CRTT	deer.jpg	4500	479	37	1	25	464	0	0
093023	12:02:30	1	SST	CRTTstop	tank.jpg	5500	93	0	0	25	464	20	92,7999999999999971578
093023	12:02:30	1	SST	CRTTstop2	tank.jpg	5500	372	32	1	24	464	20	92,7999999999999971578
093023	12:02:30	1	SST	CRTTstop	tank.jpg	4500	46	0	0	24	464	10	46,3999999999999985789
093023	12:02:30	1	SST	CRTTstop2	tank.jpg	4500	704	0	0	24	464	10	46,3999999999999985789
093023	12:02:30	1	SST	CRTT	deer.jpg	4846,3999999999996362021	460	37	1	25	464	10	46,3999999999999985789
093023	12:02:30	1	SST	CRTT	deer.jpg	6000	593	37	1	26	464	10	46,3999999999999985789
093023	12:02:30	1	SST	CRTTstop	tank.jpg	4500	325	0	0	26	464	70	324,8000000000000113687
093023	12:02:30	1	SST	CRTTstop2	tank.jpg	4500	265	32	1	25	464	70	324,8000000000000113687
093023	12:02:30	1	SST	CRTTstop	deer.jpg	4000	371	0	0	25	464	80	371,1999999999999886313
093023	12:02:30	1	SST	CRTTstop2	deer.jpg	4000	40	37	1	24	464	80	371,1999999999999886313
093023	12:02:30	1	SST	CRTTstop	tank.jpg	5500	46	0	0	24	464	10	46,3999999999999985789
093023	12:02:30	1	SST	CRTTstop2	tank.jpg	5500	704	0	0	24	464	10	46,3999999999999985789
093023	12:02:30	1	SST	CRTT	tank.jpg	3846,4000000000000909495	718	32	1	25	464	10	46,3999999999999985789
093023	12:02:30	1	SST	CRTT	deer.jpg	4000	498	37	1	26	464	10	46,3999999999999985789
093023	12:02:30	1	SST	CRTT	tank.jpg	6000	454	32	1	27	464	10	46,3999999999999985789
093023	12:02:30	1	SST	CRTTstop	deer.jpg	4000	325	0	0	27	464	70	324,8000000000000113687
093023	12:02:30	1	SST	CRTTstop2	deer.jpg	4000	231	37	1	26	464	70	324,8000000000000113687
093023	12:02:30	1	SST	CRTT	deer.jpg	4000	639	37	1	27	464	70	324,8000000000000113687
093023	12:02:30	1	SST	CRTT	tank.jpg	5000	510	32	1	28	464	70	324,8000000000000113687
093023	12:02:30	1	SST	CRTT	tank.jpg	5000	563	32	1	29	464	70	324,8000000000000113687
093023	12:02:30	1	SST	CRTT	deer.jpg	5000	430	37	1	30	464	70	324,8000000000000113687
093023	12:02:30	1	SST	CRTT	tank.jpg	5500	433	32	1	31	464	70	324,8000000000000113687
093023	12:02:30	1	SST	CRTT	deer.jpg	5000	416	37	1	32	464	70	324,8000000000000113687
093023	12:02:30	1	SST	CRTT	tank.jpg	4500	436	32	1	33	464	70	324,8000000000000113687
093023	12:02:30	1	SST	CRTTstop	deer.jpg	5500	367	37	1	32	464	80	371,1999999999999886313
093023	12:02:30	1	SST	CRTT	tank.jpg	4000	498	32	1	33	464	80	371,1999999999999886313
093023	12:02:30	1	SST	CRTT	deer.jpg	5000	470	37	1	34	464	80	371,1999999999999886313
093023	12:02:30	1	SST	CRTTstop	deer.jpg	4500	93	0	0	34	464	20	92,7999999999999971578
093023	12:02:30	1	SST	CRTTstop2	deer.jpg	4500	292	32	1	33	464	20	92,7999999999999971578
093023	12:02:30	1	SST	CRTT	tank.jpg	6000	561	32	1	34	464	20	92,7999999999999971578
093023	12:02:30	1	SST	CRTT	tank.jpg	5000	547	32	1	35	464	20	92,7999999999999971578
093023	12:02:30	1	SST	CRTT	deer.jpg	5000	438	37	1	36	464	20	92,7999999999999971578
093023	12:02:30	1	SST	CRTT	deer.jpg	4500	450	37	1	37	464	20	92,7999999999999971578
093023	12:02:30	1	SST	CRTTstop	tank.jpg	4500	46	0	0	37	464	10	46,3999999999999985789
093023	12:02:30	1	SST	CRTTstop2	tank.jpg	4500	704	0	0	37	464	10	46,3999999999999985789
093023	12:02:30	1	SST	CRTTstop	tank.jpg	3846,4000000000000909495	371	0	0	37	464	80	371,1999999999999886313
093023	12:02:30	1	SST	CRTTstop2	tank.jpg	3846,4000000000000909495	159	32	1	36	464	80	371,1999999999999886313
093023	12:02:30	1	SST	CRTT	deer.jpg	4000	555	37	1	37	464	80	371,1999999999999886313
093023	12:02:30	1	SST	CRTTstop	tank.jpg	4000	325	0	0	37	464	70	324,8000000000000113687
093023	12:02:30	1	SST	CRTTstop2	tank.jpg	4000	176	32	1	36	464	70	324,8000000000000113687
093023	12:02:30	1	SST	CRTTstop	deer.jpg	4500	93	0	0	36	464	20	92,7999999999999971578
093023	12:02:30	1	SST	CRTTstop2	deer.jpg	4500	307	37	1	35	464	20	92,7999999999999971578
093023	12:02:30	1	SST	CRTTstop	deer.jpg	6000	371	0	0	35	464	80	371,1999999999999886313
093023	12:02:30	1	SST	CRTTstop2	deer.jpg	6000	78	37	1	34	464	80	371,1999999999999886313
093023	12:02:30	1	SST	CRTT	tank.jpg	5000	533	32	1	35	464	80	371,1999999999999886313
093023	12:02:30	1	SST	CRTT	deer.jpg	4500	389	37	1	36	464	80	371,1999999999999886313
093023	12:02:30	1	SST	CRTT	tank.jpg	4000	495	32	1	37	464	80	371,1999999999999886313
093023	12:02:30	1	SST	CRTT	tank.jpg	5500	535	32	1	38	464	80	371,1999999999999886313
093023	12:02:30	1	SST	CRTTstop	deer.jpg	4500	46	0	0	38	464	10	46,3999999999999985789
093023	12:02:30	1	SST	CRTTstop2	deer.jpg	4500	704	0	0	38	464	10	46,3999999999999985789
093023	12:02:30	1	SST	CRTT	deer.jpg	4346,3999999999996362021	477	37	1	39	464	10	46,3999999999999985789
093023	12:02:30	1	SST	CRTT	tank.jpg	6000	514	32	1	40	464	10	46,3999999999999985789
093023	12:02:30	1	SST	CRTT	tank.jpg	4000	422	37	0	39	464	10	46,3999999999999985789
093023	12:02:30	1	SST	CRTTstop	deer.jpg	5500	325	0	0	39	464	70	324,8000000000000113687
093023	12:02:30	1	SST	CRTTstop2	deer.jpg	5500	251	37	1	38	464	70	324,8000000000000113687
093023	12:02:30	1	SST	CRTT	deer.jpg	6000	562	37	1	39	464	70	324,8000000000000113687
093023	12:02:30	1	SST	CRTTstop	tank.jpg	5000	93	0	0	39	464	20	92,7999999999999971578
093023	12:02:30	1	SST	CRTTstop2	tank.jpg	5000	657	0	0	39	464	20	92,7999999999999971578
093023	12:02:30	1	SST	CRTT	tank.jpg	3392,8000000000001818989	609	32	1	40	464	20	92,7999999999999971578
093023	12:02:30	1	SST	CRTT	deer.jpg	5000	537	37	1	41	464	20	92,7999999999999971578
093023	12:02:30	1	SST	CRTT	deer.jpg	6000	467	37	1	42	464	20	92,7999999999999971578
093023	12:02:30	1	SST	CRTTstop	tank.jpg	4000	325	0	0	42	464	70	324,8000000000000113687
093023	12:02:30	1	SST	CRTTstop2	tank.jpg	4000	196	32	1	41	464	70	324,8000000000000113687
093023	12:02:30	1	SST	CRTT	tank.jpg	6000	516	32	1	42	464	70	324,8000000000000113687
093023	12:02:30	1	SST	CRTTstop	deer.jpg	5500	93	0	0	42	464	20	92,7999999999999971578
093023	12:02:30	1	SST	CRTTstop2	deer.jpg	5500	360	37	1	41	464	20	92,7999999999999971578
093023	12:02:30	1	SST	CRTT	deer.jpg	4500	614	37	1	42	464	20	92,7999999999999971578
093023	12:02:30	1	SST	CRTT	tank.jpg	5000	567	32	1	43	464	20	92,7999999999999971578
093023	12:02:30	1	SST	CRTT	deer.jpg	4500	557	37	1	44	464	20	92,7999999999999971578
093023	12:02:30	1	SST	CRTTstop	tank.jpg	6000	46	0	0	44	464	10	46,3999999999999985789
093023	12:02:30	1	SST	CRTTstop2	tank.jpg	6000	704	0	0	44	464	10	46,3999999999999985789
093023	12:02:30	1	SST	CRTT	deer.jpg	4346,3999999999996362021	532	37	1	45	464	10	46,3999999999999985789
093023	12:02:30	1	SST	CRTT	tank.jpg	6000	654	32	1	46	464	10	46,3999999999999985789
093023	12:02:30	1	SST	CRTTstop	deer.jpg	4000	371	0	0	46	464	80	371,1999999999999886313
093023	12:02:30	1	SST	CRTTstop2	deer.jpg	4000	150	37	1	45	464	80	371,1999999999999886313
093023	12:02:30	1	SST	CRTT	tank.jpg	6000	624	32	1	46	464	80	371,1999999999999886313
093023	12:02:30	1	SST	CRTT	tank.jpg	6000	622	32	1	47	464	80	371,1999999999999886313
093023	12:02:30	1	SST	CRTTstop	deer.jpg	4000	371	0	0	47	464	80	371,1999999999999886313
093023	12:02:30	1	SST	CRTTstop2	deer.jpg	4000	175	37	1	46	464	80	371,1999999999999886313
093023	12:02:30	1	SST	CRTT	deer.jpg	5000	554	37	1	47	464	80	371,1999999999999886313
093023	12:02:30	1	SST	CRTT	tank.jpg	6000	507	32	1	48	464	80	371,1999999999999886313
093023	12:02:30	1	SST	CRTTstop	tank.jpg	5500	46	0	0	48	464	10	46,3999999999999985789
093023	12:02:30	1	SST	CRTTstop2	tank.jpg	5500	704	0	0	48	464	10	46,3999999999999985789
093023	12:02:30	1	SST	CRTT	deer.jpg	3346,4000000000000909495	545	37	1	49	464	10	46,3999999999999985789
093023	12:02:30	1	SST	CRTT	tank.jpg	4000	525	32	1	50	464	10	46,3999999999999985789
093023	12:02:30	1	SST	CRTT	deer.jpg	5500	397	37	1	51	464	10	46,3999999999999985789
093023	12:02:30	1	SST	CRTT	tank.jpg	6000	524	32	1	52	464	10	46,3999999999999985789
093023	12:02:30	1	SST	CRTT	deer.jpg	5500	483	37	1	53	464	10	46,3999999999999985789
093023	12:02:30	1	SST	CRTT	tank.jpg	5500	476	32	1	54	464	10	46,3999999999999985789
093023	12:02:30	1	SST	CRTTstop	deer.jpg	6000	93	0	0	54	464	20	92,7999999999999971578
093023	12:02:30	1	SST	CRTTstop2	deer.jpg	6000	309	37	1	53	464	20	92,7999999999999971578
093023	12:02:30	1	SST	CRTTstop	tank.jpg	4000	325	0	0	53	464	70	324,8000000000000113687
093023	12:02:30	1	SST	CRTTstop2	tank.jpg	4000	253	32	1	52	464	70	324,8000000000000113687
093023	12:02:30	1	SST	CRTTstop	deer.jpg	5500	325	0	0	52	464	70	324,8000000000000113687
093023	12:02:30	1	SST	CRTTstop2	deer.jpg	5500	225	37	1	51	464	70	324,8000000000000113687
093023	12:02:30	1	SST	CRTT	tank.jpg	4500	614	32	1	52	464	70	324,8000000000000113687
093023	12:02:30	1	SST	CRTTstop	deer.jpg	4500	93	0	0	52	464	20	92,7999999999999971578
093023	12:02:30	1	SST	CRTTstop2	deer.jpg	4500	657	0	0	52	464	20	92,7999999999999971578
093023	12:02:30	1	SST	CRTTstop	tank.jpg	3392,8000000000001818989	46	0	0	52	464	10	46,3999999999999985789
093023	12:02:30	1	SST	CRTTstop2	tank.jpg	3392,8000000000001818989	704	0	0	52	464	10	46,3999999999999985789
093023	12:02:30	1	SST	CRTT	deer.jpg	3346,4000000000000909495	717	37	1	53	464	10	46,3999999999999985789
093023	12:02:30	1	SST	CRTT	deer.jpg	5000	625	37	1	54	464	10	46,3999999999999985789
093023	12:02:30	1	SST	CRTTstop	tank.jpg	5000	371	0	0	54	464	80	371,1999999999999886313
093023	12:02:30	1	SST	CRTTstop2	tank.jpg	5000	248	32	1	53	464	80	371,1999999999999886313
093023	12:02:30	1	SST	CRTT	tank.jpg	6000	670	32	1	54	464	80	371,1999999999999886313
093023	12:02:30	1	SST	CRTT	deer.jpg	4000	701	37	1	55	464	80	371,1999999999999886313
093023	12:02:30	1	SST	CRTT	tank.jpg	6000	640	32	1	56	464	80	371,1999999999999886313
093023	12:02:30	1	SST	CRTTstop	deer.jpg	4500	46	0	0	56	464	10	46,3999999999999985789
093023	12:02:30	1	SST	CRTTstop2	deer.jpg	4500	704	0	0	56	464	10	46,3999999999999985789
093023	12:02:30	1	SST	CRTT	deer.jpg	4846,3999999999996362021	716	37	1	57	464	10	46,3999999999999985789
093023	12:02:30	1	SST	CRTTstop	tank.jpg	6000	325	0	0	57	464	70	324,8000000000000113687
093023	12:02:30	1	SST	CRTTstop2	tank.jpg	6000	425	0	0	57	464	70	324,8000000000000113687
093023	12:02:30	1	SST	CRTT	tank.jpg	5624,8000000000001818989	649	32	1	58	464	70	324,8000000000000113687
093023	12:02:30	1	SST	CRTT	deer.jpg	4000	704	37	1	59	464	70	324,8000000000000113687
093023	12:02:30	1	SST	CRTT	deer.jpg	4500	601	37	1	60	464	70	324,8000000000000113687
093023	12:02:30	1	SST	CRTT	tank.jpg	4500	670	32	1	61	464	70	324,8000000000000113687
093023	12:02:30	1	SST	CRTT	deer.jpg	5500	591	37	1	62	464	70	324,8000000000000113687
093023	12:02:30	1	SST	CRTT	tank.jpg	6000	599	32	1	63	464	70	324,8000000000000113687
093023	12:02:30	1	SST	CRTTstop	tank.jpg	6000	371	0	0	63	464	80	371,1999999999999886313
093023	12:02:30	1	SST	CRTTstop2	tank.jpg	6000	215	32	1	62	464	80	371,1999999999999886313
093023	12:02:30	1	SST	CRTTstop	deer.jpg	4500	93	0	0	62	464	20	92,7999999999999971578
093023	12:02:30	1	SST	CRTTstop2	deer.jpg	4500	657	0	0	62	464	20	92,7999999999999971578
093023	12:02:30	1	SST	CRTT	tank.jpg	4892,8000000000001818989	571	32	1	63	464	20	92,7999999999999971578
093023	12:02:30	1	SST	CRTTstop	deer.jpg	4500	93	0	0	63	464	20	92,7999999999999971578
093023	12:02:30	1	SST	CRTTstop2	deer.jpg	4500	657	0	0	63	464	20	92,7999999999999971578
093023	12:02:30	1	SST	CRTT	tank.jpg	4892,8000000000001818989	625	32	1	64	464	20	92,7999999999999971578
093023	12:02:30	1	SST	CRTT	deer.jpg	5000	656	37	1	65	464	20	92,7999999999999971578
093023	12:02:30	1	SST	CRTTstop	deer.jpg	6000	371	0	0	65	464	80	371,1999999999999886313
093023	12:02:30	1	SST	CRTTstop2	deer.jpg	6000	150	37	1	64	464	80	371,1999999999999886313
093023	12:02:30	1	SST	CRTT	tank.jpg	6000	600	32	1	65	464	80	371,1999999999999886313
