date	time	subject	blockcode	trialcode	picture.target.currentitem	values.stiminterval	latency	response	correct	values.score	values.AverageRTpractice	values.SSDcoeffitient	values.SSD
100123	17:23:07	1	Practice	CRTTpractice	tank.jpg	4500	699	32	1	1	0	0	0
100123	17:23:07	1	Practice	CRTTpractice	deer.jpg	4500	701	37	1	2	0	0	0
100123	17:23:07	1	Practice	CRTTpractice	deer.jpg	5000	750	0	0	1	0	0	0
100123	17:23:07	1	Practice	CRTTpractice	tank.jpg	4500	744	32	1	2	0	0	0
100123	17:23:07	1	Practice	CRTTpractice	deer.jpg	6000	554	37	1	3	0	0	0
100123	17:23:07	1	Practice	CRTTpractice	tank.jpg	4500	744	32	1	4	0	0	0
100123	17:23:07	1	Practice	CRTTpractice	deer.jpg	5500	695	37	1	5	0	0	0
100123	17:23:07	1	Practice	CRTTpractice	tank.jpg	4000	661	32	1	6	0	0	0
100123	17:23:07	1	Practice	CRTTpractice	deer.jpg	4500	750	0	0	5	0	0	0
100123	17:23:07	1	Practice	CRTTpractice	tank.jpg	4500	662	32	1	6	0	0	0
100123	17:23:07	1	Practice	CRTTpractice	tank.jpg	6000	750	0	0	5	0	0	0
100123	17:23:07	1	Practice	CRTTpractice	deer.jpg	5500	750	0	0	4	0	0	0
100123	17:23:07	1	Practice	CRTTpractice	deer.jpg	6000	750	0	0	3	0	0	0
100123	17:23:07	1	Practice	CRTTpractice	tank.jpg	5000	733	32	1	4	0	0	0
100123	17:23:07	1	Practice	CRTTpractice	tank.jpg	4000	704	32	1	5	0	0	0
100123	17:23:07	1	Practice	CRTTpractice	deer.jpg	6000	628	37	1	6	0	0	0
100123	17:23:07	1	Practice	CRTTpractice	deer.jpg	6000	658	37	1	7	0	0	0
100123	17:23:07	1	Practice	CRTTpractice	tank.jpg	4000	593	32	1	8	0	0	0
100123	17:23:07	1	Practice	CRTTpractice	deer.jpg	4500	575	37	1	9	0	0	0
100123	17:23:07	1	Practice	CRTTpractice	tank.jpg	4000	578	32	1	10	0	0	0
100123	17:23:07	1	Practice	CRTTpractice	tank.jpg	6000	523	32	1	11	0	0	0
100123	17:23:07	1	Practice	CRTTpractice	deer.jpg	5000	502	37	1	12	0	0	0
100123	17:23:07	1	Practice	CRTTpractice	deer.jpg	4000	636	37	1	13	0	0	0
100123	17:23:07	1	Practice	CRTTpractice	tank.jpg	4500	535	32	1	14	0	0	0
100123	17:23:07	1	Practice	CRTTpractice	deer.jpg	4000	363	37	1	15	0	0	0
100123	17:23:07	1	Practice	CRTTpractice	tank.jpg	4500	498	32	1	16	0	0	0
100123	17:23:07	1	Practice	CRTTpractice	deer.jpg	5000	678	37	1	17	0	0	0
100123	17:23:07	1	Practice	CRTTpractice	tank.jpg	5000	628	32	1	18	0	0	0
100123	17:23:07	1	Practice	CRTTpractice	deer.jpg	5000	396	37	1	19	0	0	0
100123	17:23:07	1	Practice	CRTTpractice	tank.jpg	6000	419	32	1	20	0	0	0
100123	17:23:07	1	SST	CRTTstop	tank.jpg	5000	440	0	0	20	629	70	440,3000000000000113687
100123	17:23:07	1	SST	CRTTstop2	tank.jpg	5000	310	0	0	20	629	70	440,3000000000000113687
100123	17:23:07	1	SST	CRTT	deer.jpg	4240,3000000000001818989	507	37	1	21	629	70	440,3000000000000113687
100123	17:23:07	1	SST	CRTT	deer.jpg	5500	707	37	1	22	629	70	440,3000000000000113687
100123	17:23:07	1	SST	CRTTstop	tank.jpg	6000	126	0	0	22	629	20	125,7999999999999971578
100123	17:23:07	1	SST	CRTTstop2	tank.jpg	6000	624	0	0	22	629	20	125,7999999999999971578
100123	17:23:07	1	SST	CRTTstop	tank.jpg	4425,8000000000001818989	63	0	0	22	629	10	62,8999999999999985789
100123	17:23:07	1	SST	CRTTstop2	tank.jpg	4425,8000000000001818989	687	0	0	22	629	10	62,8999999999999985789
100123	17:23:07	1	SST	CRTT	deer.jpg	4362,8999999999996362021	502	37	1	23	629	10	62,8999999999999985789
100123	17:23:07	1	SST	CRTTstop	deer.jpg	5000	503	0	0	23	629	80	503,1999999999999886313
100123	17:23:07	1	SST	CRTTstop2	deer.jpg	5000	53	37	1	22	629	80	503,1999999999999886313
100123	17:23:07	1	SST	CRTTstop	tank.jpg	5000	503	0	0	22	629	80	503,1999999999999886313
100123	17:23:07	1	SST	CRTTstop2	tank.jpg	5000	87	32	1	21	629	80	503,1999999999999886313
100123	17:23:07	1	SST	CRTT	tank.jpg	5500	750	0	0	20	629	80	503,1999999999999886313
100123	17:23:07	1	SST	CRTTstop	deer.jpg	4000	126	0	0	20	629	20	125,7999999999999971578
100123	17:23:07	1	SST	CRTTstop2	deer.jpg	4000	624	0	0	20	629	20	125,7999999999999971578
100123	17:23:07	1	SST	CRTT	deer.jpg	3925,8000000000001818989	578	37	1	21	629	20	125,7999999999999971578
100123	17:23:07	1	SST	CRTT	tank.jpg	6000	750	0	0	20	629	20	125,7999999999999971578
100123	17:23:07	1	SST	CRTT	deer.jpg	5500	688	37	1	21	629	20	125,7999999999999971578
100123	17:23:07	1	SST	CRTT	tank.jpg	4000	590	32	1	22	629	20	125,7999999999999971578
100123	17:23:07	1	SST	CRTT	tank.jpg	4000	680	32	1	23	629	20	125,7999999999999971578
100123	17:23:07	1	SST	CRTT	deer.jpg	4000	710	37	1	24	629	20	125,7999999999999971578
100123	17:23:07	1	SST	CRTT	tank.jpg	6000	617	32	1	25	629	20	125,7999999999999971578
100123	17:23:07	1	SST	CRTT	deer.jpg	6000	640	37	1	26	629	20	125,7999999999999971578
100123	17:23:07	1	SST	CRTT	tank.jpg	5000	599	32	1	27	629	20	125,7999999999999971578
100123	17:23:07	1	SST	CRTTstop	deer.jpg	4500	63	0	0	27	629	10	62,8999999999999985789
100123	17:23:07	1	SST	CRTTstop2	deer.jpg	4500	687	0	0	27	629	10	62,8999999999999985789
100123	17:23:07	1	SST	CRTT	tank.jpg	5362,8999999999996362021	664	32	1	28	629	10	62,8999999999999985789
100123	17:23:07	1	SST	CRTT	deer.jpg	5500	658	37	1	29	629	10	62,8999999999999985789
100123	17:23:07	1	SST	CRTTstop	tank.jpg	4500	440	0	0	29	629	70	440,3000000000000113687
100123	17:23:07	1	SST	CRTTstop2	tank.jpg	4500	210	32	1	28	629	70	440,3000000000000113687
100123	17:23:07	1	SST	CRTTstop	deer.jpg	6000	63	0	0	28	629	10	62,8999999999999985789
100123	17:23:07	1	SST	CRTTstop2	deer.jpg	6000	687	0	0	28	629	10	62,8999999999999985789
100123	17:23:07	1	SST	CRTT	tank.jpg	3362,9000000000000909495	750	0	0	27	629	10	62,8999999999999985789
100123	17:23:07	1	SST	CRTTstop	deer.jpg	5000	503	0	0	27	629	80	503,1999999999999886313
100123	17:23:07	1	SST	CRTTstop2	deer.jpg	5000	247	0	0	27	629	80	503,1999999999999886313
100123	17:23:07	1	SST	CRTT	tank.jpg	4303,1999999999998181011	750	0	0	26	629	80	503,1999999999999886313
100123	17:23:07	1	SST	CRTTstop	deer.jpg	4500	126	0	0	26	629	20	125,7999999999999971578
100123	17:23:07	1	SST	CRTTstop2	deer.jpg	4500	624	0	0	26	629	20	125,7999999999999971578
100123	17:23:07	1	SST	CRTT	tank.jpg	3925,8000000000001818989	703	32	1	27	629	20	125,7999999999999971578
100123	17:23:07	1	SST	CRTTstop	deer.jpg	4000	440	0	0	27	629	70	440,3000000000000113687
100123	17:23:07	1	SST	CRTTstop2	deer.jpg	4000	310	0	0	27	629	70	440,3000000000000113687
100123	17:23:07	1	SST	CRTT	tank.jpg	4240,3000000000001818989	719	32	1	28	629	70	440,3000000000000113687
100123	17:23:07	1	SST	CRTT	deer.jpg	5000	722	37	1	29	629	70	440,3000000000000113687
100123	17:23:07	1	SST	CRTT	deer.jpg	4000	750	0	0	28	629	70	440,3000000000000113687
100123	17:23:07	1	SST	CRTT	tank.jpg	5000	617	32	1	29	629	70	440,3000000000000113687
100123	17:23:07	1	SST	CRTTstop	deer.jpg	6000	63	0	0	29	629	10	62,8999999999999985789
100123	17:23:07	1	SST	CRTTstop2	deer.jpg	6000	687	0	0	29	629	10	62,8999999999999985789
100123	17:23:07	1	SST	CRTTstop	tank.jpg	3862,9000000000000909495	126	0	0	29	629	20	125,7999999999999971578
100123	17:23:07	1	SST	CRTTstop2	tank.jpg	3862,9000000000000909495	624	0	0	29	629	20	125,7999999999999971578
100123	17:23:07	1	SST	CRTT	deer.jpg	4925,8000000000001818989	728	37	1	30	629	20	125,7999999999999971578
100123	17:23:07	1	SST	CRTT	tank.jpg	4500	750	0	0	29	629	20	125,7999999999999971578
100123	17:23:07	1	SST	CRTT	deer.jpg	4000	635	37	1	30	629	20	125,7999999999999971578
100123	17:23:07	1	SST	CRTT	tank.jpg	4500	558	32	1	31	629	20	125,7999999999999971578
100123	17:23:07	1	SST	CRTT	tank.jpg	4500	717	32	1	32	629	20	125,7999999999999971578
100123	17:23:07	1	SST	CRTTstop	deer.jpg	5000	503	0	0	32	629	80	503,1999999999999886313
100123	17:23:07	1	SST	CRTTstop2	deer.jpg	5000	92	37	1	31	629	80	503,1999999999999886313
100123	17:23:07	1	SST	CRTTstop	tank.jpg	6000	440	0	0	31	629	70	440,3000000000000113687
100123	17:23:07	1	SST	CRTTstop2	tank.jpg	6000	189	32	1	30	629	70	440,3000000000000113687
100123	17:23:07	1	SST	CRTT	deer.jpg	6000	718	37	1	31	629	70	440,3000000000000113687
100123	17:23:07	1	SST	CRTTstop	deer.jpg	5000	63	0	0	31	629	10	62,8999999999999985789
100123	17:23:07	1	SST	CRTTstop2	deer.jpg	5000	687	0	0	31	629	10	62,8999999999999985789
100123	17:23:07	1	SST	CRTTstop	tank.jpg	4862,8999999999996362021	503	0	0	31	629	80	503,1999999999999886313
100123	17:23:07	1	SST	CRTTstop2	tank.jpg	4862,8999999999996362021	141	32	1	30	629	80	503,1999999999999886313
100123	17:23:07	1	SST	CRTTstop	tank.jpg	6000	440	0	0	30	629	70	440,3000000000000113687
100123	17:23:07	1	SST	CRTTstop2	tank.jpg	6000	310	0	0	30	629	70	440,3000000000000113687
100123	17:23:07	1	SST	CRTT	deer.jpg	4740,3000000000001818989	725	37	1	31	629	70	440,3000000000000113687
100123	17:23:07	1	SST	CRTT	deer.jpg	5500	750	0	0	30	629	70	440,3000000000000113687
100123	17:23:07	1	SST	CRTTstop	tank.jpg	4500	126	0	0	30	629	20	125,7999999999999971578
100123	17:23:07	1	SST	CRTTstop2	tank.jpg	4500	624	0	0	30	629	20	125,7999999999999971578
100123	17:23:07	1	SST	CRTTstop	tank.jpg	4925,8000000000001818989	126	0	0	30	629	20	125,7999999999999971578
100123	17:23:07	1	SST	CRTTstop2	tank.jpg	4925,8000000000001818989	624	0	0	30	629	20	125,7999999999999971578
100123	17:23:07	1	SST	CRTT	deer.jpg	5425,8000000000001818989	619	37	1	31	629	20	125,7999999999999971578
100123	17:23:07	1	SST	CRTT	tank.jpg	6000	714	32	1	32	629	20	125,7999999999999971578
100123	17:23:07	1	SST	CRTT	deer.jpg	5000	629	37	1	33	629	20	125,7999999999999971578
100123	17:23:07	1	SST	CRTT	deer.jpg	6000	580	37	1	34	629	20	125,7999999999999971578
100123	17:23:07	1	SST	CRTT	tank.jpg	6000	685	32	1	35	629	20	125,7999999999999971578
100123	17:23:07	1	SST	CRTT	tank.jpg	4000	750	0	0	34	629	20	125,7999999999999971578
100123	17:23:07	1	SST	CRTT	deer.jpg	5500	576	37	1	35	629	20	125,7999999999999971578
100123	17:23:07	1	SST	CRTT	deer.jpg	6000	569	37	1	36	629	20	125,7999999999999971578
100123	17:23:07	1	SST	CRTT	tank.jpg	4500	647	32	1	37	629	20	125,7999999999999971578
100123	17:23:07	1	SST	CRTT	deer.jpg	6000	573	37	1	38	629	20	125,7999999999999971578
100123	17:23:07	1	SST	CRTT	tank.jpg	5500	635	32	1	39	629	20	125,7999999999999971578
100123	17:23:07	1	SST	CRTT	tank.jpg	4000	627	32	1	40	629	20	125,7999999999999971578
100123	17:23:07	1	SST	CRTTstop	deer.jpg	4500	63	0	0	40	629	10	62,8999999999999985789
100123	17:23:07	1	SST	CRTTstop2	deer.jpg	4500	687	0	0	40	629	10	62,8999999999999985789
100123	17:23:07	1	SST	CRTTstop	tank.jpg	3862,9000000000000909495	440	0	0	40	629	70	440,3000000000000113687
100123	17:23:07	1	SST	CRTTstop2	tank.jpg	3862,9000000000000909495	229	32	1	39	629	70	440,3000000000000113687
100123	17:23:07	1	SST	CRTT	deer.jpg	5500	750	0	0	38	629	70	440,3000000000000113687
100123	17:23:07	1	SST	CRTT	deer.jpg	6000	522	37	1	39	629	70	440,3000000000000113687
100123	17:23:07	1	SST	CRTTstop	tank.jpg	4000	503	0	0	39	629	80	503,1999999999999886313
100123	17:23:07	1	SST	CRTTstop2	tank.jpg	4000	177	32	1	38	629	80	503,1999999999999886313
100123	17:23:07	1	SST	CRTT	tank.jpg	5000	750	0	0	37	629	80	503,1999999999999886313
100123	17:23:07	1	SST	CRTTstop	deer.jpg	4500	63	0	0	37	629	10	62,8999999999999985789
100123	17:23:07	1	SST	CRTTstop2	deer.jpg	4500	687	0	0	37	629	10	62,8999999999999985789
100123	17:23:07	1	SST	CRTT	deer.jpg	3362,9000000000000909495	712	37	1	38	629	10	62,8999999999999985789
100123	17:23:07	1	SST	CRTT	tank.jpg	5000	661	32	1	39	629	10	62,8999999999999985789
100123	17:23:07	1	SST	CRTT	tank.jpg	4500	624	32	1	40	629	10	62,8999999999999985789
100123	17:23:07	1	SST	CRTTstop	deer.jpg	5500	503	0	0	40	629	80	503,1999999999999886313
100123	17:23:07	1	SST	CRTTstop2	deer.jpg	5500	53	37	1	39	629	80	503,1999999999999886313
100123	17:23:07	1	SST	CRTT	deer.jpg	5500	592	37	1	40	629	80	503,1999999999999886313
100123	17:23:07	1	SST	CRTT	tank.jpg	5000	601	32	1	41	629	80	503,1999999999999886313
100123	17:23:07	1	SST	CRTTstop	deer.jpg	4500	421	37	1	40	629	70	440,3000000000000113687
100123	17:23:07	1	SST	CRTT	tank.jpg	4500	706	32	1	41	629	70	440,3000000000000113687
100123	17:23:07	1	SST	CRTTstop	deer.jpg	4500	126	0	0	41	629	20	125,7999999999999971578
100123	17:23:07	1	SST	CRTTstop2	deer.jpg	4500	624	0	0	41	629	20	125,7999999999999971578
100123	17:23:07	1	SST	CRTT	tank.jpg	3425,8000000000001818989	670	32	1	42	629	20	125,7999999999999971578
100123	17:23:07	1	SST	CRTTstop	tank.jpg	4500	126	0	0	42	629	20	125,7999999999999971578
100123	17:23:07	1	SST	CRTTstop2	tank.jpg	4500	624	0	0	42	629	20	125,7999999999999971578
100123	17:23:07	1	SST	CRTTstop	deer.jpg	4425,8000000000001818989	63	0	0	42	629	10	62,8999999999999985789
100123	17:23:07	1	SST	CRTTstop2	deer.jpg	4425,8000000000001818989	687	0	0	42	629	10	62,8999999999999985789
100123	17:23:07	1	SST	CRTT	deer.jpg	3362,9000000000000909495	584	37	1	43	629	10	62,8999999999999985789
100123	17:23:07	1	SST	CRTTstop	tank.jpg	4500	503	0	0	43	629	80	503,1999999999999886313
100123	17:23:07	1	SST	CRTTstop2	tank.jpg	4500	96	32	1	42	629	80	503,1999999999999886313
100123	17:23:07	1	SST	CRTT	deer.jpg	4500	674	37	1	43	629	80	503,1999999999999886313
100123	17:23:07	1	SST	CRTTstop	tank.jpg	5500	440	0	0	43	629	70	440,3000000000000113687
100123	17:23:07	1	SST	CRTTstop2	tank.jpg	5500	128	32	1	42	629	70	440,3000000000000113687
100123	17:23:07	1	SST	CRTT	tank.jpg	4500	681	32	1	43	629	70	440,3000000000000113687
100123	17:23:07	1	SST	CRTTstop	deer.jpg	4500	440	0	0	43	629	70	440,3000000000000113687
100123	17:23:07	1	SST	CRTTstop2	deer.jpg	4500	80	37	1	42	629	70	440,3000000000000113687
100123	17:23:07	1	SST	CRTT	tank.jpg	4000	750	0	0	41	629	70	440,3000000000000113687
100123	17:23:07	1	SST	CRTTstop	deer.jpg	4500	63	0	0	41	629	10	62,8999999999999985789
100123	17:23:07	1	SST	CRTTstop2	deer.jpg	4500	687	0	0	41	629	10	62,8999999999999985789
100123	17:23:07	1	SST	CRTT	deer.jpg	4862,8999999999996362021	574	37	1	42	629	10	62,8999999999999985789
100123	17:23:07	1	SST	CRTTstop	tank.jpg	4000	126	0	0	42	629	20	125,7999999999999971578
100123	17:23:07	1	SST	CRTTstop2	tank.jpg	4000	624	0	0	42	629	20	125,7999999999999971578
100123	17:23:07	1	SST	CRTT	tank.jpg	4925,8000000000001818989	679	32	1	43	629	20	125,7999999999999971578
100123	17:23:07	1	SST	CRTT	deer.jpg	4500	529	37	1	44	629	20	125,7999999999999971578
100123	17:23:07	1	SST	CRTT	tank.jpg	5000	556	32	1	45	629	20	125,7999999999999971578
100123	17:23:07	1	SST	CRTT	deer.jpg	5000	615	37	1	46	629	20	125,7999999999999971578
