date	time	subject	blockcode	trialcode	picture.target.currentitem	values.stiminterval	latency	response	correct	values.score	values.AverageRTpractice	values.SSDcoeffitient	values.SSD
061523	12:22:20	1	Practice	CRTTpractice	tank.jpg	4500	750	0	0	-1	0	0	0
061523	12:22:20	1	Practice	CRTTpractice	deer.jpg	4500	556	37	1	0	0	0	0
061523	12:22:20	1	Practice	CRTTpractice	deer.jpg	5000	631	37	1	1	0	0	0
061523	12:22:20	1	Practice	CRTTpractice	tank.jpg	6000	453	32	1	2	0	0	0
061523	12:22:20	1	Practice	CRTTpractice	tank.jpg	5500	503	32	1	3	0	0	0
061523	12:22:20	1	Practice	CRTTpractice	deer.jpg	6000	362	37	1	4	0	0	0
061523	12:22:20	1	Practice	CRTTpractice	tank.jpg	6000	316	32	1	5	0	0	0
061523	12:22:20	1	Practice	CRTTpractice	deer.jpg	4000	329	37	1	6	0	0	0
061523	12:22:20	1	Practice	CRTTpractice	tank.jpg	6000	420	32	1	7	0	0	0
061523	12:22:20	1	Practice	CRTTpractice	deer.jpg	5000	347	37	1	8	0	0	0
061523	12:22:20	1	Practice	CRTTpractice	tank.jpg	6000	301	32	1	9	0	0	0
061523	12:22:20	1	Practice	CRTTpractice	deer.jpg	6000	305	32	0	8	0	0	0
061523	12:22:20	1	Practice	CRTTpractice	tank.jpg	6000	524	32	1	9	0	0	0
061523	12:22:20	1	Practice	CRTTpractice	deer.jpg	5500	356	37	1	10	0	0	0
061523	12:22:20	1	Practice	CRTTpractice	tank.jpg	4000	383	32	1	11	0	0	0
061523	12:22:20	1	Practice	CRTTpractice	deer.jpg	5000	473	37	1	12	0	0	0
061523	12:22:20	1	Practice	CRTTpractice	deer.jpg	6000	373	32	0	11	0	0	0
061523	12:22:20	1	Practice	CRTTpractice	tank.jpg	5500	563	32	1	12	0	0	0
061523	12:22:20	1	Practice	CRTTpractice	tank.jpg	5000	693	32	1	13	0	0	0
061523	12:22:20	1	Practice	CRTTpractice	deer.jpg	4000	475	37	1	14	0	0	0
061523	12:22:20	1	Practice	CRTTpractice	deer.jpg	5000	569	37	1	15	0	0	0
061523	12:22:20	1	Practice	CRTTpractice	tank.jpg	5000	451	32	1	16	0	0	0
061523	12:22:20	1	Practice	CRTTpractice	tank.jpg	6000	536	32	1	17	0	0	0
061523	12:22:20	1	Practice	CRTTpractice	deer.jpg	4500	575	37	1	18	0	0	0
061523	12:22:20	1	Practice	CRTTpractice	deer.jpg	4500	542	37	1	19	0	0	0
061523	12:22:20	1	Practice	CRTTpractice	tank.jpg	5500	541	32	1	20	0	0	0
061523	12:22:20	1	Practice	CRTTpractice	tank.jpg	6000	663	32	1	21	0	0	0
061523	12:22:20	1	Practice	CRTTpractice	deer.jpg	5000	373	37	1	22	0	0	0
061523	12:22:20	1	Practice	CRTTpractice	deer.jpg	4500	539	37	1	23	0	0	0
061523	12:22:20	1	Practice	CRTTpractice	tank.jpg	5000	494	32	1	24	0	0	0
061523	12:22:20	1	SST	CRTT	deer.jpg	5500	492	37	1	25	480	0	0
061523	12:22:20	1	SST	CRTT	tank.jpg	6000	513	32	1	26	480	0	0
061523	12:22:20	1	SST	CRTTstop	tank.jpg	5500	96	0	0	26	480	20	96
061523	12:22:20	1	SST	CRTTstop2	tank.jpg	5500	654	0	0	26	480	20	96
061523	12:22:20	1	SST	CRTTstop	deer.jpg	3396	384	0	0	26	480	80	384
061523	12:22:20	1	SST	CRTTstop2	deer.jpg	3396	133	37	1	25	480	80	384
061523	12:22:20	1	SST	CRTT	tank.jpg	5500	468	32	1	26	480	80	384
061523	12:22:20	1	SST	CRTT	deer.jpg	6000	432	37	1	27	480	80	384
061523	12:22:20	1	SST	CRTT	tank.jpg	5500	499	32	1	28	480	80	384
061523	12:22:20	1	SST	CRTT	deer.jpg	5000	527	37	1	29	480	80	384
061523	12:22:20	1	SST	CRTTstop	deer.jpg	4500	48	0	0	29	480	10	48
061523	12:22:20	1	SST	CRTTstop2	deer.jpg	4500	702	0	0	29	480	10	48
061523	12:22:20	1	SST	CRTT	tank.jpg	4848	513	32	1	30	480	10	48
061523	12:22:20	1	SST	CRTTstop	deer.jpg	6000	336	0	0	30	480	70	336
061523	12:22:20	1	SST	CRTTstop2	deer.jpg	6000	190	37	1	29	480	70	336
061523	12:22:20	1	SST	CRTT	tank.jpg	4000	544	32	1	30	480	70	336
061523	12:22:20	1	SST	CRTT	tank.jpg	6000	506	32	1	31	480	70	336
061523	12:22:20	1	SST	CRTTstop	deer.jpg	4500	96	0	0	31	480	20	96
061523	12:22:20	1	SST	CRTTstop2	deer.jpg	4500	654	0	0	31	480	20	96
061523	12:22:20	1	SST	CRTTstop	deer.jpg	3396	48	0	0	31	480	10	48
061523	12:22:20	1	SST	CRTTstop2	deer.jpg	3396	702	0	0	31	480	10	48
061523	12:22:20	1	SST	CRTTstop	tank.jpg	3848	336	0	0	31	480	70	336
061523	12:22:20	1	SST	CRTTstop2	tank.jpg	3848	188	32	1	30	480	70	336
061523	12:22:20	1	SST	CRTT	tank.jpg	4500	546	32	1	31	480	70	336
061523	12:22:20	1	SST	CRTT	deer.jpg	6000	483	37	1	32	480	70	336
061523	12:22:20	1	SST	CRTT	deer.jpg	6000	568	37	1	33	480	70	336
061523	12:22:20	1	SST	CRTT	tank.jpg	5000	633	32	1	34	480	70	336
061523	12:22:20	1	SST	CRTT	tank.jpg	4000	553	32	1	35	480	70	336
061523	12:22:20	1	SST	CRTT	deer.jpg	5000	572	37	1	36	480	70	336
061523	12:22:20	1	SST	CRTTstop	tank.jpg	4000	384	0	0	36	480	80	384
061523	12:22:20	1	SST	CRTTstop2	tank.jpg	4000	118	32	1	35	480	80	384
061523	12:22:20	1	SST	CRTT	deer.jpg	6000	521	37	1	36	480	80	384
061523	12:22:20	1	SST	CRTTstop	deer.jpg	6000	48	0	0	36	480	10	48
061523	12:22:20	1	SST	CRTTstop2	deer.jpg	6000	702	0	0	36	480	10	48
061523	12:22:20	1	SST	CRTTstop	tank.jpg	3848	336	0	0	36	480	70	336
061523	12:22:20	1	SST	CRTTstop2	tank.jpg	3848	191	32	1	35	480	70	336
061523	12:22:20	1	SST	CRTT	deer.jpg	4000	538	37	1	36	480	70	336
061523	12:22:20	1	SST	CRTT	tank.jpg	4000	590	32	1	37	480	70	336
061523	12:22:20	1	SST	CRTT	tank.jpg	4000	576	32	1	38	480	70	336
061523	12:22:20	1	SST	CRTTstop	deer.jpg	5500	384	0	0	38	480	80	384
061523	12:22:20	1	SST	CRTTstop2	deer.jpg	5500	173	37	1	37	480	80	384
061523	12:22:20	1	SST	CRTT	tank.jpg	5500	427	32	1	38	480	80	384
061523	12:22:20	1	SST	CRTTstop	deer.jpg	4500	96	0	0	38	480	20	96
061523	12:22:20	1	SST	CRTTstop2	deer.jpg	4500	654	0	0	38	480	20	96
061523	12:22:20	1	SST	CRTT	tank.jpg	4396	635	32	1	39	480	20	96
061523	12:22:20	1	SST	CRTT	deer.jpg	5500	565	37	1	40	480	20	96
061523	12:22:20	1	SST	CRTT	tank.jpg	5500	618	32	1	41	480	20	96
061523	12:22:20	1	SST	CRTT	deer.jpg	5500	582	37	1	42	480	20	96
061523	12:22:20	1	SST	CRTT	deer.jpg	6000	518	37	1	43	480	20	96
061523	12:22:20	1	SST	CRTTstop	tank.jpg	5500	96	0	0	43	480	20	96
061523	12:22:20	1	SST	CRTTstop2	tank.jpg	5500	654	0	0	43	480	20	96
061523	12:22:20	1	SST	CRTT	tank.jpg	3896	517	32	1	44	480	20	96
061523	12:22:20	1	SST	CRTTstop	deer.jpg	5500	48	0	0	44	480	10	48
061523	12:22:20	1	SST	CRTTstop2	deer.jpg	5500	702	0	0	44	480	10	48
061523	12:22:20	1	SST	CRTT	tank.jpg	3348	595	32	1	45	480	10	48
061523	12:22:20	1	SST	CRTT	deer.jpg	4500	497	37	1	46	480	10	48
061523	12:22:20	1	SST	CRTTstop	tank.jpg	5000	384	0	0	46	480	80	384
061523	12:22:20	1	SST	CRTTstop2	tank.jpg	5000	333	32	1	45	480	80	384
061523	12:22:20	1	SST	CRTTstop	deer.jpg	5000	336	0	0	45	480	70	336
061523	12:22:20	1	SST	CRTTstop2	deer.jpg	5000	414	0	0	45	480	70	336
061523	12:22:20	1	SST	CRTTstop	deer.jpg	5136	48	0	0	45	480	10	48
061523	12:22:20	1	SST	CRTTstop2	deer.jpg	5136	702	0	0	45	480	10	48
061523	12:22:20	1	SST	CRTTstop	tank.jpg	4348	336	0	0	45	480	70	336
061523	12:22:20	1	SST	CRTTstop2	tank.jpg	4348	205	32	1	44	480	70	336
061523	12:22:20	1	SST	CRTT	tank.jpg	5000	750	0	0	43	480	70	336
061523	12:22:20	1	SST	CRTTstop	deer.jpg	4500	96	0	0	43	480	20	96
061523	12:22:20	1	SST	CRTTstop2	deer.jpg	4500	654	0	0	43	480	20	96
061523	12:22:20	1	SST	CRTT	tank.jpg	4896	500	32	1	44	480	20	96
061523	12:22:20	1	SST	CRTT	deer.jpg	4000	665	37	1	45	480	20	96
061523	12:22:20	1	SST	CRTTstop	tank.jpg	6000	384	0	0	45	480	80	384
061523	12:22:20	1	SST	CRTTstop2	tank.jpg	6000	174	32	1	44	480	80	384
061523	12:22:20	1	SST	CRTT	deer.jpg	5500	580	37	1	45	480	80	384
061523	12:22:20	1	SST	CRTT	deer.jpg	6000	604	37	1	46	480	80	384
061523	12:22:20	1	SST	CRTT	tank.jpg	4000	550	32	1	47	480	80	384
061523	12:22:20	1	SST	CRTT	tank.jpg	6000	750	0	0	46	480	80	384
061523	12:22:20	1	SST	CRTT	deer.jpg	6000	536	37	1	47	480	80	384
061523	12:22:20	1	SST	CRTT	deer.jpg	5000	603	37	1	48	480	80	384
061523	12:22:20	1	SST	CRTT	tank.jpg	6000	579	32	1	49	480	80	384
061523	12:22:20	1	SST	CRTTstop	deer.jpg	6000	336	0	0	49	480	70	336
061523	12:22:20	1	SST	CRTTstop2	deer.jpg	6000	61	37	1	48	480	70	336
061523	12:22:20	1	SST	CRTT	tank.jpg	6000	563	32	1	49	480	70	336
061523	12:22:20	1	SST	CRTT	deer.jpg	6000	428	37	1	50	480	70	336
061523	12:22:20	1	SST	CRTT	tank.jpg	6000	499	32	1	51	480	70	336
061523	12:22:20	1	SST	CRTTstop	tank.jpg	6000	384	0	0	51	480	80	384
061523	12:22:20	1	SST	CRTTstop2	tank.jpg	6000	189	32	1	50	480	80	384
061523	12:22:20	1	SST	CRTT	deer.jpg	4500	636	37	1	51	480	80	384
061523	12:22:20	1	SST	CRTT	tank.jpg	5500	574	32	1	52	480	80	384
061523	12:22:20	1	SST	CRTT	deer.jpg	5000	536	37	1	53	480	80	384
061523	12:22:20	1	SST	CRTT	deer.jpg	5500	558	37	1	54	480	80	384
061523	12:22:20	1	SST	CRTTstop	tank.jpg	4500	96	0	0	54	480	20	96
061523	12:22:20	1	SST	CRTTstop2	tank.jpg	4500	654	0	0	54	480	20	96
061523	12:22:20	1	SST	CRTT	tank.jpg	5396	616	32	1	55	480	20	96
061523	12:22:20	1	SST	CRTT	deer.jpg	6000	486	37	1	56	480	20	96
061523	12:22:20	1	SST	CRTTstop	tank.jpg	4000	48	0	0	56	480	10	48
061523	12:22:20	1	SST	CRTTstop2	tank.jpg	4000	702	0	0	56	480	10	48
061523	12:22:20	1	SST	CRTTstop	deer.jpg	5348	384	0	0	56	480	80	384
061523	12:22:20	1	SST	CRTTstop2	deer.jpg	5348	185	37	1	55	480	80	384
061523	12:22:20	1	SST	CRTT	deer.jpg	6000	649	37	1	56	480	80	384
061523	12:22:20	1	SST	CRTTstop	tank.jpg	5500	96	0	0	56	480	20	96
061523	12:22:20	1	SST	CRTTstop2	tank.jpg	5500	654	0	0	56	480	20	96
061523	12:22:20	1	SST	CRTT	deer.jpg	3896	683	37	1	57	480	20	96
061523	12:22:20	1	SST	CRTTstop	tank.jpg	6000	48	0	0	57	480	10	48
061523	12:22:20	1	SST	CRTTstop2	tank.jpg	6000	702	0	0	57	480	10	48
061523	12:22:20	1	SST	CRTT	tank.jpg	3848	593	37	0	56	480	10	48
061523	12:22:20	1	SST	CRTT	deer.jpg	5500	750	0	0	55	480	10	48
061523	12:22:20	1	SST	CRTTstop	deer.jpg	5500	336	0	0	55	480	70	336
061523	12:22:20	1	SST	CRTTstop2	deer.jpg	5500	173	37	1	54	480	70	336
061523	12:22:20	1	SST	CRTT	tank.jpg	5000	535	32	1	55	480	70	336
061523	12:22:20	1	SST	CRTT	tank.jpg	4500	615	32	1	56	480	70	336
061523	12:22:20	1	SST	CRTT	deer.jpg	4000	559	37	1	57	480	70	336
061523	12:22:20	1	SST	CRTT	deer.jpg	5500	605	37	1	58	480	70	336
061523	12:22:20	1	SST	CRTT	tank.jpg	5500	713	32	1	59	480	70	336
061523	12:22:20	1	SST	CRTT	deer.jpg	6000	555	37	1	60	480	70	336
061523	12:22:20	1	SST	CRTTstop	tank.jpg	5000	336	0	0	60	480	70	336
061523	12:22:20	1	SST	CRTTstop2	tank.jpg	5000	183	32	1	59	480	70	336
061523	12:22:20	1	SST	CRTT	deer.jpg	5000	513	37	1	60	480	70	336
061523	12:22:20	1	SST	CRTT	tank.jpg	5500	489	32	1	61	480	70	336
061523	12:22:20	1	SST	CRTTstop	tank.jpg	6000	384	0	0	61	480	80	384
061523	12:22:20	1	SST	CRTTstop2	tank.jpg	6000	366	0	0	61	480	80	384
061523	12:22:20	1	SST	CRTTstop	deer.jpg	5684	96	0	0	61	480	20	96
061523	12:22:20	1	SST	CRTTstop2	deer.jpg	5684	654	0	0	61	480	20	96
061523	12:22:20	1	SST	CRTT	deer.jpg	4896	563	37	1	62	480	20	96
061523	12:22:20	1	SST	CRTT	tank.jpg	4000	558	32	1	63	480	20	96
061523	12:22:20	1	SST	CRTTstop	deer.jpg	5000	48	0	0	63	480	10	48
061523	12:22:20	1	SST	CRTTstop2	deer.jpg	5000	702	0	0	63	480	10	48
061523	12:22:20	1	SST	CRTTstop	tank.jpg	4848	384	0	0	63	480	80	384
061523	12:22:20	1	SST	CRTTstop2	tank.jpg	4848	176	32	1	62	480	80	384
061523	12:22:20	1	SST	CRTT	deer.jpg	4500	575	37	1	63	480	80	384
061523	12:22:20	1	SST	CRTTstop	tank.jpg	5000	336	0	0	63	480	70	336
061523	12:22:20	1	SST	CRTTstop2	tank.jpg	5000	243	32	1	62	480	70	336
061523	12:22:20	1	SST	CRTTstop	tank.jpg	5000	96	0	0	62	480	20	96
061523	12:22:20	1	SST	CRTTstop2	tank.jpg	5000	654	0	0	62	480	20	96
061523	12:22:20	1	SST	CRTT	deer.jpg	5396	533	37	1	63	480	20	96
